
CLAM2 Development Software Ver.05:   CLAM2 Development by PES using Synchrotron Light: EDC
Friday, December 16, 2011
Messured: 4:59:47 AM - 5:21:39 AM


Parameter Setting
Fix Photon Energy: 600.000000 eV
1638.4 eV (XPS): CAE=100
Kinetic Energy Scan:   50.0000 - 75.0000   eV 
 Kinetic Energy Step:  0.2000   eV 
 1200 lines/mm 
 Ch4-Speed:  High Speed Mode 
 Sampling: 1
Number of scan : 10*

Energy (eV)	CPS	Ie (mA)	Ip (A)	CPS/Ip	Avg CPS	Avg CPS/Ip	


Scan : 	1

50.000000	2037.000000	68.815000	2.486864E-10	8.191039E+12	2037.000000	8.191039E+12
50.200000	1998.000000	68.815000	2.487859E-10	8.031002E+12	1998.000000	8.031002E+12
50.400000	2030.000000	68.811000	2.484555E-10	8.170477E+12	2030.000000	8.170477E+12
50.600000	1905.000000	68.811000	2.486118E-10	7.662549E+12	1905.000000	7.662549E+12
50.800000	2027.000000	68.808000	2.486829E-10	8.150942E+12	2027.000000	8.150942E+12
51.000000	1948.000000	68.808000	2.480078E-10	7.854592E+12	1948.000000	7.854592E+12
51.200000	1979.000000	68.805000	2.492904E-10	7.938533E+12	1979.000000	7.938533E+12
51.400000	1934.000000	68.805000	2.487823E-10	7.773865E+12	1934.000000	7.773865E+12
51.600000	1950.000000	68.802000	2.489564E-10	7.832697E+12	1950.000000	7.832697E+12
51.800000	1881.000000	68.802000	2.480576E-10	7.582916E+12	1881.000000	7.582916E+12
52.000000	2015.000000	68.802000	2.483169E-10	8.114631E+12	2015.000000	8.114631E+12
52.200000	1937.000000	68.800000	2.482210E-10	7.803530E+12	1937.000000	7.803530E+12
52.400000	1944.000000	68.800000	2.482174E-10	7.831844E+12	1944.000000	7.831844E+12
52.600000	1994.000000	68.798000	2.491056E-10	8.004637E+12	1994.000000	8.004637E+12
52.800000	1890.000000	68.798000	2.471374E-10	7.647568E+12	1890.000000	7.647568E+12
53.000000	1963.000000	68.794000	2.482068E-10	7.908728E+12	1963.000000	7.908728E+12
53.200000	1924.000000	68.794000	2.480576E-10	7.756263E+12	1924.000000	7.756263E+12
53.400000	1886.000000	68.791000	2.490772E-10	7.571950E+12	1886.000000	7.571950E+12
53.600000	1927.000000	68.791000	2.487965E-10	7.745286E+12	1927.000000	7.745286E+12
53.800000	1862.000000	68.788000	2.487859E-10	7.484347E+12	1862.000000	7.484347E+12
54.000000	1876.000000	68.788000	2.485443E-10	7.547950E+12	1876.000000	7.547950E+12
54.200000	1815.000000	68.788000	2.489209E-10	7.291473E+12	1815.000000	7.291473E+12
54.400000	1845.000000	68.784000	2.488250E-10	7.414850E+12	1845.000000	7.414850E+12
54.600000	1822.000000	68.784000	2.488427E-10	7.321895E+12	1822.000000	7.321895E+12
54.800000	1875.000000	68.782000	2.481713E-10	7.555265E+12	1875.000000	7.555265E+12
55.000000	1818.000000	68.782000	2.482885E-10	7.322127E+12	1818.000000	7.322127E+12
55.200000	1762.000000	68.779000	2.482672E-10	7.097192E+12	1762.000000	7.097192E+12
55.400000	1912.000000	68.779000	2.483702E-10	7.698186E+12	1912.000000	7.698186E+12
55.600000	1811.000000	68.775000	2.489919E-10	7.273329E+12	1811.000000	7.273329E+12
55.800000	1821.000000	68.775000	2.480043E-10	7.342615E+12	1821.000000	7.342615E+12
56.000000	1763.000000	68.772000	2.482494E-10	7.101729E+12	1763.000000	7.101729E+12
56.200000	1807.000000	68.772000	2.491163E-10	7.253640E+12	1807.000000	7.253640E+12
56.400000	1786.000000	68.772000	2.487539E-10	7.179787E+12	1786.000000	7.179787E+12
56.600000	1781.000000	68.769000	2.488783E-10	7.156108E+12	1781.000000	7.156108E+12
56.800000	1748.000000	68.769000	2.482849E-10	7.040299E+12	1748.000000	7.040299E+12
57.000000	1779.000000	68.769000	2.491376E-10	7.140632E+12	1779.000000	7.140632E+12
57.200000	1825.000000	68.765000	2.489209E-10	7.331646E+12	1825.000000	7.331646E+12
57.400000	1786.000000	68.765000	2.481535E-10	7.197158E+12	1786.000000	7.197158E+12
57.600000	1691.000000	68.763000	2.481286E-10	6.815014E+12	1691.000000	6.815014E+12
57.800000	1726.000000	68.763000	2.481571E-10	6.955271E+12	1726.000000	6.955271E+12
58.000000	1701.000000	68.760000	2.492513E-10	6.824438E+12	1701.000000	6.824438E+12
58.200000	1680.000000	68.760000	2.491980E-10	6.741627E+12	1680.000000	6.741627E+12
58.400000	1816.000000	68.760000	2.479190E-10	7.324973E+12	1816.000000	7.324973E+12
58.600000	1667.000000	68.758000	2.490061E-10	6.694615E+12	1667.000000	6.694615E+12
58.800000	1687.000000	68.758000	2.487504E-10	6.781899E+12	1687.000000	6.781899E+12
59.000000	1746.000000	68.755000	2.486615E-10	7.021594E+12	1746.000000	7.021594E+12
59.200000	1726.000000	68.755000	2.484200E-10	6.947911E+12	1726.000000	6.947911E+12
59.400000	1749.000000	68.753000	2.479190E-10	7.054724E+12	1749.000000	7.054724E+12
59.600000	1807.000000	68.753000	2.488498E-10	7.261408E+12	1807.000000	7.261408E+12
59.800000	1813.000000	68.750000	2.486402E-10	7.291661E+12	1813.000000	7.291661E+12
60.000000	1779.000000	68.750000	2.479474E-10	7.174909E+12	1779.000000	7.174909E+12
60.200000	1784.000000	68.747000	2.480505E-10	7.192084E+12	1784.000000	7.192084E+12
60.400000	1783.000000	68.747000	2.480576E-10	7.187847E+12	1783.000000	7.187847E+12
60.600000	1844.000000	68.747000	2.482849E-10	7.426952E+12	1844.000000	7.426952E+12
60.800000	1812.000000	68.744000	2.482849E-10	7.298068E+12	1812.000000	7.298068E+12
61.000000	1930.000000	68.744000	2.484022E-10	7.769657E+12	1930.000000	7.769657E+12
61.200000	1816.000000	68.741000	2.480718E-10	7.320461E+12	1816.000000	7.320461E+12
61.400000	1877.000000	68.741000	2.482032E-10	7.562352E+12	1877.000000	7.562352E+12
61.600000	1901.000000	68.738000	2.480860E-10	7.662665E+12	1901.000000	7.662665E+12
61.800000	1976.000000	68.738000	2.487042E-10	7.945181E+12	1976.000000	7.945181E+12
62.000000	1917.000000	68.735000	2.486047E-10	7.711037E+12	1917.000000	7.711037E+12
62.200000	1964.000000	68.735000	2.485088E-10	7.903141E+12	1964.000000	7.903141E+12
62.400000	1979.000000	68.732000	2.486935E-10	7.957586E+12	1979.000000	7.957586E+12
62.600000	1971.000000	68.732000	2.487539E-10	7.923494E+12	1971.000000	7.923494E+12
62.800000	1944.000000	68.732000	2.479901E-10	7.839023E+12	1944.000000	7.839023E+12
63.000000	1910.000000	68.730000	2.485656E-10	7.684088E+12	1910.000000	7.684088E+12
63.200000	1843.000000	68.730000	2.487468E-10	7.409141E+12	1843.000000	7.409141E+12
63.400000	1847.000000	68.727000	2.487042E-10	7.426493E+12	1847.000000	7.426493E+12
63.600000	1797.000000	68.727000	2.486935E-10	7.225762E+12	1797.000000	7.225762E+12
63.800000	1711.000000	68.724000	2.481322E-10	6.895518E+12	1711.000000	6.895518E+12
64.000000	1704.000000	68.724000	2.479652E-10	6.871932E+12	1704.000000	6.871932E+12
64.200000	1602.000000	68.722000	2.481038E-10	6.456975E+12	1602.000000	6.456975E+12
64.400000	1658.000000	68.722000	2.481890E-10	6.680393E+12	1658.000000	6.680393E+12
64.600000	1564.000000	68.719000	2.480895E-10	6.304177E+12	1564.000000	6.304177E+12
64.800000	1561.000000	68.719000	2.479581E-10	6.295418E+12	1561.000000	6.295418E+12
65.000000	1546.000000	68.719000	2.481926E-10	6.229033E+12	1546.000000	6.229033E+12
65.200000	1464.000000	68.716000	2.484484E-10	5.892572E+12	1464.000000	5.892572E+12
65.400000	1475.000000	68.716000	2.482281E-10	5.942115E+12	1475.000000	5.942115E+12
65.600000	1469.000000	68.713000	2.483596E-10	5.914811E+12	1469.000000	5.914811E+12
65.800000	1467.000000	68.713000	2.483382E-10	5.907267E+12	1467.000000	5.907267E+12
66.000000	1484.000000	68.710000	2.480860E-10	5.981797E+12	1484.000000	5.981797E+12
66.200000	1368.000000	68.710000	2.476845E-10	5.523155E+12	1368.000000	5.523155E+12
66.400000	1433.000000	68.710000	2.480967E-10	5.775974E+12	1433.000000	5.775974E+12
66.600000	1468.000000	68.708000	2.480789E-10	5.917472E+12	1468.000000	5.917472E+12
66.800000	1433.000000	68.705000	2.479581E-10	5.779202E+12	1433.000000	5.779202E+12
67.000000	1512.000000	68.705000	2.482601E-10	6.090387E+12	1512.000000	6.090387E+12
67.200000	1447.000000	68.705000	2.480576E-10	5.833323E+12	1447.000000	5.833323E+12
67.400000	1448.000000	68.702000	2.480860E-10	5.836686E+12	1448.000000	5.836686E+12
67.600000	1368.000000	68.702000	2.480043E-10	5.516033E+12	1368.000000	5.516033E+12
67.800000	1422.000000	68.699000	2.482174E-10	5.728849E+12	1422.000000	5.728849E+12
68.000000	1385.000000	68.699000	2.479581E-10	5.585621E+12	1385.000000	5.585621E+12
68.200000	1420.000000	68.696000	2.481890E-10	5.721446E+12	1420.000000	5.721446E+12
68.400000	1418.000000	68.696000	2.480576E-10	5.716414E+12	1418.000000	5.716414E+12
68.600000	1379.000000	68.694000	2.482565E-10	5.554739E+12	1379.000000	5.554739E+12
68.800000	1438.000000	68.694000	2.482352E-10	5.792893E+12	1438.000000	5.792893E+12
69.000000	1410.000000	68.694000	2.479048E-10	5.687667E+12	1410.000000	5.687667E+12
69.200000	1324.000000	68.691000	2.479368E-10	5.340071E+12	1324.000000	5.340071E+12
69.400000	1430.000000	68.691000	2.481251E-10	5.763222E+12	1430.000000	5.763222E+12
69.600000	1400.000000	68.689000	2.480895E-10	5.643125E+12	1400.000000	5.643125E+12
69.800000	1315.000000	68.689000	2.478480E-10	5.305671E+12	1315.000000	5.305671E+12
70.000000	1387.000000	68.686000	2.481002E-10	5.590483E+12	1387.000000	5.590483E+12
70.200000	1426.000000	68.686000	2.479155E-10	5.751960E+12	1426.000000	5.751960E+12
70.400000	1396.000000	68.683000	2.476312E-10	5.637416E+12	1396.000000	5.637416E+12
70.600000	1378.000000	68.683000	2.477734E-10	5.561533E+12	1378.000000	5.561533E+12
70.800000	1415.000000	68.680000	2.477094E-10	5.712339E+12	1415.000000	5.712339E+12
71.000000	1338.000000	68.680000	2.477591E-10	5.400407E+12	1338.000000	5.400407E+12
71.200000	1305.000000	68.680000	2.479474E-10	5.263213E+12	1305.000000	5.263213E+12
71.400000	1377.000000	68.677000	2.480647E-10	5.550971E+12	1377.000000	5.550971E+12
71.600000	1401.000000	68.677000	2.478018E-10	5.653712E+12	1401.000000	5.653712E+12
71.800000	1375.000000	68.674000	2.479048E-10	5.546484E+12	1375.000000	5.546484E+12
72.000000	1355.000000	68.674000	2.478515E-10	5.466983E+12	1355.000000	5.466983E+12
72.200000	1353.000000	68.671000	2.477165E-10	5.461889E+12	1353.000000	5.461889E+12
72.400000	1366.000000	68.671000	2.479155E-10	5.509942E+12	1366.000000	5.509942E+12
72.600000	1343.000000	68.669000	2.479119E-10	5.417247E+12	1343.000000	5.417247E+12
72.800000	1349.000000	68.669000	2.476241E-10	5.447773E+12	1349.000000	5.447773E+12
73.000000	1387.000000	68.666000	2.480576E-10	5.591443E+12	1387.000000	5.591443E+12
73.200000	1383.000000	68.666000	2.475531E-10	5.586680E+12	1383.000000	5.586680E+12
73.400000	1350.000000	68.666000	2.474181E-10	5.456351E+12	1350.000000	5.456351E+12
73.600000	1309.000000	68.663000	2.472476E-10	5.294288E+12	1309.000000	5.294288E+12
73.800000	1344.000000	68.663000	2.474749E-10	5.430854E+12	1344.000000	5.430854E+12
74.000000	1409.000000	68.661000	2.471943E-10	5.699970E+12	1409.000000	5.699970E+12
74.200000	1368.000000	68.661000	2.481961E-10	5.511771E+12	1368.000000	5.511771E+12
74.400000	1271.000000	68.658000	2.477094E-10	5.131012E+12	1271.000000	5.131012E+12
74.600000	1334.000000	68.658000	2.474181E-10	5.391683E+12	1334.000000	5.391683E+12
74.800000	1339.000000	68.655000	2.477201E-10	5.405294E+12	1339.000000	5.405294E+12
75.000000	1363.000000	68.655000	2.474714E-10	5.507707E+12	1363.000000	5.507707E+12

Scan : 	2

50.000000	2070.000000	68.646000	2.480682E-10	8.344479E+12	2053.500000	8.267759E+12
50.200000	1989.000000	68.646000	2.474394E-10	8.038332E+12	1993.500000	8.034667E+12
50.400000	1936.000000	68.643000	2.475993E-10	7.819085E+12	1983.000000	7.994781E+12
50.600000	1987.000000	68.643000	2.477805E-10	8.019194E+12	1946.000000	7.840872E+12
50.800000	1951.000000	68.640000	2.478231E-10	7.872551E+12	1989.000000	8.011747E+12
51.000000	1958.000000	68.640000	2.480185E-10	7.894572E+12	1953.000000	7.874582E+12
51.200000	1931.000000	68.640000	2.478124E-10	7.792185E+12	1955.000000	7.865359E+12
51.400000	1978.000000	68.636000	2.476988E-10	7.985505E+12	1956.000000	7.879685E+12
51.600000	1950.000000	68.636000	2.474536E-10	7.880265E+12	1950.000000	7.856481E+12
51.800000	1909.000000	68.633000	2.471126E-10	7.725223E+12	1895.000000	7.654070E+12
52.000000	2029.000000	68.633000	2.481961E-10	8.174987E+12	2022.000000	8.144809E+12
52.200000	1936.000000	68.630000	2.474749E-10	7.823016E+12	1936.500000	7.813273E+12
52.400000	2011.000000	68.630000	2.474252E-10	8.127709E+12	1977.500000	7.979777E+12
52.600000	1889.000000	68.627000	2.475531E-10	7.630686E+12	1941.500000	7.817662E+12
52.800000	1892.000000	68.627000	2.473683E-10	7.648514E+12	1891.000000	7.648041E+12
53.000000	1907.000000	68.624000	2.470415E-10	7.719351E+12	1935.000000	7.814039E+12
53.200000	1921.000000	68.624000	2.482281E-10	7.738850E+12	1922.500000	7.747556E+12
53.400000	1863.000000	68.624000	2.480753E-10	7.509817E+12	1874.500000	7.540883E+12
53.600000	1856.000000	68.621000	2.469918E-10	7.514420E+12	1891.500000	7.629853E+12
53.800000	1844.000000	68.621000	2.474785E-10	7.451152E+12	1853.000000	7.467750E+12
54.000000	1829.000000	68.618000	2.479474E-10	7.376565E+12	1852.500000	7.462257E+12
54.200000	1871.000000	68.618000	2.481748E-10	7.539041E+12	1843.000000	7.415257E+12
54.400000	1820.000000	68.614000	2.480327E-10	7.337742E+12	1832.500000	7.376296E+12
54.600000	1778.000000	68.614000	2.481855E-10	7.163996E+12	1800.000000	7.242945E+12
54.800000	1842.000000	68.611000	2.472653E-10	7.449488E+12	1858.500000	7.502377E+12
55.000000	1793.000000	68.611000	2.473648E-10	7.248404E+12	1805.500000	7.285266E+12
55.200000	1732.000000	68.609000	2.466187E-10	7.022987E+12	1747.000000	7.060090E+12
55.400000	1808.000000	68.609000	2.481286E-10	7.286544E+12	1860.000000	7.492365E+12
55.600000	1757.000000	68.609000	2.472902E-10	7.105013E+12	1784.000000	7.189171E+12
55.800000	1789.000000	68.606000	2.473115E-10	7.233792E+12	1805.000000	7.288203E+12
56.000000	1800.000000	68.606000	2.473328E-10	7.277644E+12	1781.500000	7.189686E+12
56.200000	1809.000000	68.604000	2.474607E-10	7.310252E+12	1808.000000	7.281946E+12
56.400000	1770.000000	68.604000	2.479368E-10	7.138916E+12	1778.000000	7.159351E+12
56.600000	1835.000000	68.601000	2.478302E-10	7.404263E+12	1808.000000	7.280186E+12
56.800000	1786.000000	68.601000	2.479261E-10	7.203760E+12	1767.000000	7.122029E+12
57.000000	1784.000000	68.598000	2.474465E-10	7.209639E+12	1781.500000	7.175136E+12
57.200000	1759.000000	68.598000	2.469100E-10	7.124053E+12	1792.000000	7.227850E+12
57.400000	1805.000000	68.598000	2.477840E-10	7.284570E+12	1795.500000	7.240864E+12
57.600000	1750.000000	68.595000	2.477201E-10	7.064425E+12	1720.500000	6.939720E+12
57.800000	1738.000000	68.595000	2.476455E-10	7.018096E+12	1732.000000	6.986684E+12
58.000000	1723.000000	68.595000	2.477272E-10	6.955231E+12	1712.000000	6.889835E+12
58.200000	1798.000000	68.592000	2.476881E-10	7.259130E+12	1739.000000	7.000378E+12
58.400000	1751.000000	68.592000	2.471090E-10	7.085942E+12	1783.500000	7.205457E+12
58.600000	1766.000000	68.589000	2.472120E-10	7.143666E+12	1716.500000	6.919141E+12
58.800000	1686.000000	68.589000	2.472156E-10	6.819958E+12	1686.500000	6.800928E+12
59.000000	1747.000000	68.587000	2.476526E-10	7.054236E+12	1746.500000	7.037915E+12
59.200000	1785.000000	68.587000	2.476028E-10	7.209127E+12	1755.500000	7.078519E+12
59.400000	1730.000000	68.584000	2.471801E-10	6.998945E+12	1739.500000	7.026834E+12
59.600000	1769.000000	68.584000	2.471374E-10	7.157962E+12	1788.000000	7.209685E+12
59.800000	1738.000000	68.584000	2.470202E-10	7.035862E+12	1775.500000	7.163761E+12
60.000000	1823.000000	68.581000	2.471197E-10	7.376992E+12	1801.000000	7.275950E+12
60.200000	1777.000000	68.581000	2.471765E-10	7.189195E+12	1780.500000	7.190639E+12
60.400000	1844.000000	68.578000	2.475211E-10	7.449870E+12	1813.500000	7.318858E+12
60.600000	1837.000000	68.578000	2.474643E-10	7.423293E+12	1840.500000	7.425122E+12
60.800000	1877.000000	68.574000	2.479297E-10	7.570694E+12	1844.500000	7.434381E+12
61.000000	1934.000000	68.574000	2.467679E-10	7.837324E+12	1932.000000	7.803491E+12
61.200000	1906.000000	68.571000	2.470912E-10	7.713751E+12	1861.000000	7.517106E+12
61.400000	1883.000000	68.571000	2.473541E-10	7.612568E+12	1880.000000	7.587460E+12
61.600000	1978.000000	68.568000	2.474927E-10	7.992155E+12	1939.500000	7.827410E+12
61.800000	1908.000000	68.568000	2.474430E-10	7.710867E+12	1942.000000	7.828024E+12
62.000000	1951.000000	68.568000	2.473861E-10	7.886458E+12	1934.000000	7.798747E+12
62.200000	1951.000000	68.565000	2.475211E-10	7.882156E+12	1957.500000	7.892648E+12
62.400000	1956.000000	68.565000	2.476739E-10	7.897481E+12	1967.500000	7.927534E+12
62.600000	2014.000000	68.562000	2.472973E-10	8.144044E+12	1992.500000	8.033769E+12
62.800000	1952.000000	68.562000	2.470095E-10	7.902530E+12	1948.000000	7.870776E+12
63.000000	1897.000000	68.559000	2.471161E-10	7.676554E+12	1903.500000	7.680321E+12
63.200000	1876.000000	68.559000	2.467395E-10	7.603160E+12	1859.500000	7.506150E+12
63.400000	1929.000000	68.556000	2.475815E-10	7.791374E+12	1888.000000	7.608933E+12
63.600000	1833.000000	68.556000	2.474820E-10	7.406599E+12	1815.000000	7.316181E+12
63.800000	1772.000000	68.554000	2.474003E-10	7.162481E+12	1741.500000	7.029000E+12
64.000000	1728.000000	68.554000	2.472227E-10	6.989649E+12	1716.000000	6.930791E+12
64.200000	1697.000000	68.554000	2.470628E-10	6.868699E+12	1649.500000	6.662837E+12
64.400000	1586.000000	68.550000	2.473151E-10	6.412872E+12	1622.000000	6.546632E+12
64.600000	1610.000000	68.550000	2.472582E-10	6.511412E+12	1587.000000	6.407794E+12
64.800000	1604.000000	68.547000	2.472476E-10	6.487424E+12	1582.500000	6.391421E+12
65.000000	1582.000000	68.547000	2.470664E-10	6.403137E+12	1564.000000	6.316085E+12
65.200000	1495.000000	68.547000	2.472831E-10	6.045702E+12	1479.500000	5.969137E+12
65.400000	1524.000000	68.544000	2.474110E-10	6.159791E+12	1499.500000	6.050953E+12
65.600000	1523.000000	68.541000	2.473008E-10	6.158492E+12	1496.000000	6.036651E+12
65.800000	1404.000000	68.541000	2.473328E-10	5.676562E+12	1435.500000	5.791914E+12
66.000000	1463.000000	68.541000	2.473648E-10	5.914342E+12	1473.500000	5.948069E+12
66.200000	1406.000000	68.538000	2.473470E-10	5.684322E+12	1387.000000	5.603739E+12
66.400000	1412.000000	68.538000	2.470912E-10	5.714489E+12	1422.500000	5.745231E+12
66.600000	1446.000000	68.535000	2.471161E-10	5.851501E+12	1457.000000	5.884486E+12
66.800000	1415.000000	68.535000	2.471232E-10	5.725889E+12	1424.000000	5.752546E+12
67.000000	1422.000000	68.533000	2.471801E-10	5.752890E+12	1467.000000	5.921638E+12
67.200000	1436.000000	68.533000	2.471090E-10	5.811201E+12	1441.500000	5.822262E+12
67.400000	1414.000000	68.530000	2.472724E-10	5.718390E+12	1431.000000	5.777538E+12
67.600000	1462.000000	68.530000	2.470415E-10	5.918034E+12	1415.000000	5.717034E+12
67.800000	1420.000000	68.528000	2.469775E-10	5.749512E+12	1421.000000	5.739180E+12
68.000000	1412.000000	68.528000	2.470166E-10	5.716215E+12	1398.500000	5.650918E+12
68.200000	1409.000000	68.528000	2.469882E-10	5.704726E+12	1414.500000	5.713086E+12
68.400000	1413.000000	68.526000	2.469207E-10	5.722485E+12	1415.500000	5.719450E+12
68.600000	1393.000000	68.526000	2.470735E-10	5.637998E+12	1386.000000	5.596369E+12
68.800000	1447.000000	68.523000	2.470095E-10	5.858074E+12	1442.500000	5.825484E+12
69.000000	1377.000000	68.523000	2.469314E-10	5.576448E+12	1393.500000	5.632057E+12
69.200000	1428.000000	68.520000	2.470948E-10	5.779158E+12	1376.000000	5.559614E+12
69.400000	1376.000000	68.520000	2.470131E-10	5.570555E+12	1403.000000	5.666888E+12
69.600000	1344.000000	68.516000	2.469207E-10	5.443043E+12	1372.000000	5.543084E+12
69.800000	1400.000000	68.516000	2.468781E-10	5.670815E+12	1357.500000	5.488243E+12
70.000000	1443.000000	68.513000	2.468781E-10	5.844990E+12	1415.000000	5.717737E+12
70.200000	1294.000000	68.513000	2.470806E-10	5.237157E+12	1360.000000	5.494559E+12
70.400000	1404.000000	68.513000	2.470202E-10	5.683746E+12	1400.000000	5.660581E+12
70.600000	1392.000000	68.509000	2.468745E-10	5.638492E+12	1385.000000	5.600013E+12
70.800000	1321.000000	68.509000	2.468283E-10	5.351898E+12	1368.000000	5.532119E+12
71.000000	1466.000000	68.505000	2.475602E-10	5.921792E+12	1402.000000	5.661100E+12
71.200000	1395.000000	68.505000	2.469029E-10	5.649994E+12	1350.000000	5.456604E+12
71.400000	1380.000000	68.503000	2.468319E-10	5.590849E+12	1378.500000	5.570910E+12
71.600000	1364.000000	68.503000	2.469207E-10	5.524041E+12	1382.500000	5.588876E+12
71.800000	1344.000000	68.500000	2.467715E-10	5.446334E+12	1359.500000	5.496409E+12
72.000000	1391.000000	68.500000	2.468532E-10	5.634928E+12	1373.000000	5.550956E+12
72.200000	1332.000000	68.500000	2.467573E-10	5.398017E+12	1342.500000	5.429953E+12
72.400000	1379.000000	68.497000	2.469029E-10	5.585192E+12	1372.500000	5.547567E+12
72.600000	1445.000000	68.497000	2.468497E-10	5.853764E+12	1394.000000	5.635506E+12
72.800000	1360.000000	68.494000	2.467502E-10	5.511647E+12	1354.500000	5.479710E+12
73.000000	1335.000000	68.494000	2.469420E-10	5.406128E+12	1361.000000	5.498786E+12
73.200000	1389.000000	68.491000	2.468248E-10	5.627473E+12	1386.000000	5.607077E+12
73.400000	1347.000000	68.491000	2.466862E-10	5.460378E+12	1348.500000	5.458365E+12
73.600000	1423.000000	68.489000	2.466969E-10	5.768212E+12	1366.000000	5.531250E+12
73.800000	1369.000000	68.489000	2.467644E-10	5.547802E+12	1356.500000	5.489328E+12
74.000000	1343.000000	68.486000	2.467573E-10	5.442595E+12	1376.000000	5.571282E+12
74.200000	1376.000000	68.486000	2.465548E-10	5.580909E+12	1372.000000	5.546340E+12
74.400000	1343.000000	68.484000	2.467502E-10	5.442751E+12	1307.000000	5.286882E+12
74.600000	1375.000000	68.484000	2.467573E-10	5.572277E+12	1354.500000	5.481980E+12
74.800000	1365.000000	68.484000	2.467218E-10	5.532547E+12	1352.000000	5.468921E+12
75.000000	1376.000000	68.481000	2.467146E-10	5.577295E+12	1369.500000	5.542501E+12

Scan : 	3

50.000000	1984.000000	68.473000	2.464979E-10	8.048750E+12	2030.333333	8.194756E+12
50.200000	2002.000000	68.473000	2.463487E-10	8.126692E+12	1996.333333	8.065342E+12
50.400000	2005.000000	68.473000	2.466081E-10	8.130309E+12	1990.333333	8.039957E+12
50.600000	2051.000000	68.470000	2.466187E-10	8.316482E+12	1981.000000	7.999408E+12
50.800000	1984.000000	68.470000	2.465654E-10	8.046547E+12	1987.333333	8.023347E+12
51.000000	1998.000000	68.467000	2.464517E-10	8.107065E+12	1968.000000	7.952076E+12
51.200000	1895.000000	68.467000	2.464695E-10	7.688578E+12	1935.000000	7.806432E+12
51.400000	1940.000000	68.464000	2.465015E-10	7.870135E+12	1950.666667	7.876502E+12
51.600000	1949.000000	68.464000	2.464944E-10	7.906873E+12	1949.666667	7.873278E+12
51.800000	1927.000000	68.462000	2.463665E-10	7.821680E+12	1905.666667	7.709940E+12
52.000000	1923.000000	68.462000	2.464411E-10	7.803082E+12	1989.000000	8.030900E+12
52.200000	1928.000000	68.459000	2.462706E-10	7.828787E+12	1933.666667	7.818444E+12
52.400000	1929.000000	68.459000	2.463771E-10	7.829461E+12	1961.333333	7.929672E+12
52.600000	1803.000000	68.459000	2.463949E-10	7.317522E+12	1895.333333	7.650948E+12
52.800000	1915.000000	68.456000	2.462528E-10	7.776561E+12	1899.000000	7.690881E+12
53.000000	1903.000000	68.456000	2.464020E-10	7.723152E+12	1924.333333	7.783743E+12
53.200000	1799.000000	68.452000	2.465264E-10	7.297393E+12	1881.333333	7.597502E+12
53.400000	1886.000000	68.452000	2.463487E-10	7.655815E+12	1878.333333	7.579194E+12
53.600000	1869.000000	68.450000	2.462777E-10	7.588994E+12	1884.000000	7.616233E+12
53.800000	1899.000000	68.450000	2.461498E-10	7.714814E+12	1868.333333	7.550105E+12
54.000000	1868.000000	68.447000	2.462066E-10	7.587124E+12	1857.666667	7.503880E+12
54.200000	1848.000000	68.447000	2.460077E-10	7.511960E+12	1844.666667	7.447491E+12
54.400000	1909.000000	68.447000	2.461711E-10	7.754769E+12	1858.000000	7.502454E+12
54.600000	1834.000000	68.444000	2.463381E-10	7.445052E+12	1811.333333	7.310314E+12
54.800000	1828.000000	68.444000	2.463416E-10	7.420590E+12	1848.333333	7.475115E+12
55.000000	1838.000000	68.441000	2.462421E-10	7.464199E+12	1816.333333	7.344910E+12
55.200000	1869.000000	68.441000	2.464340E-10	7.584181E+12	1787.666667	7.234787E+12
55.400000	1818.000000	68.438000	2.465015E-10	7.375209E+12	1846.000000	7.453313E+12
55.600000	1764.000000	68.438000	2.461746E-10	7.165646E+12	1777.333333	7.181329E+12
55.800000	1851.000000	68.435000	2.462421E-10	7.516992E+12	1820.333333	7.364466E+12
56.000000	1831.000000	68.435000	2.463096E-10	7.433734E+12	1798.000000	7.271036E+12
56.200000	1790.000000	68.432000	2.463842E-10	7.265076E+12	1802.000000	7.276323E+12
56.400000	1786.000000	68.432000	2.463452E-10	7.249989E+12	1780.666667	7.189564E+12
56.600000	1805.000000	68.432000	2.463842E-10	7.325957E+12	1807.000000	7.295443E+12
56.800000	1835.000000	68.430000	2.461853E-10	7.453735E+12	1789.666667	7.232598E+12
57.000000	1770.000000	68.430000	2.461356E-10	7.191158E+12	1777.666667	7.180477E+12
57.200000	1732.000000	68.427000	2.459082E-10	7.043279E+12	1772.000000	7.166326E+12
57.400000	1739.000000	68.427000	2.459970E-10	7.069192E+12	1776.666667	7.183640E+12
57.600000	1725.000000	68.425000	2.461142E-10	7.008941E+12	1722.000000	6.962794E+12
57.800000	1752.000000	68.425000	2.461462E-10	7.117721E+12	1738.666667	7.030363E+12
58.000000	1759.000000	68.422000	2.457945E-10	7.156385E+12	1727.666667	6.978685E+12
58.200000	1799.000000	68.422000	2.462173E-10	7.306554E+12	1759.000000	7.102437E+12
58.400000	1715.000000	68.420000	2.462528E-10	6.964388E+12	1760.666667	7.125101E+12
58.600000	1739.000000	68.420000	2.461817E-10	7.063888E+12	1724.000000	6.967390E+12
58.800000	1727.000000	68.420000	2.462208E-10	7.014030E+12	1700.000000	6.871962E+12
59.000000	1765.000000	68.416000	2.461107E-10	7.171570E+12	1752.666667	7.082467E+12
59.200000	1743.000000	68.416000	2.459544E-10	7.086679E+12	1751.333333	7.081239E+12
59.400000	1832.000000	68.416000	2.460894E-10	7.444449E+12	1770.333333	7.166039E+12
59.600000	1761.000000	68.413000	2.461213E-10	7.155009E+12	1779.000000	7.191459E+12
59.800000	1762.000000	68.413000	2.460574E-10	7.160931E+12	1771.000000	7.162818E+12
60.000000	1742.000000	68.410000	2.461640E-10	7.076583E+12	1781.333333	7.209495E+12
60.200000	1889.000000	68.410000	2.459615E-10	7.680064E+12	1816.666667	7.353781E+12
60.400000	1794.000000	68.407000	2.461213E-10	7.289089E+12	1807.000000	7.308935E+12
60.600000	1876.000000	68.407000	2.462492E-10	7.618299E+12	1852.333333	7.489515E+12
60.800000	1801.000000	68.405000	2.458407E-10	7.325882E+12	1830.000000	7.398215E+12
61.000000	1836.000000	68.405000	2.463700E-10	7.452206E+12	1900.000000	7.686396E+12
61.200000	1975.000000	68.405000	2.466187E-10	8.008314E+12	1899.000000	7.680842E+12
61.400000	1913.000000	68.403000	2.464624E-10	7.761833E+12	1891.000000	7.645585E+12
61.600000	1956.000000	68.403000	2.462670E-10	7.942599E+12	1945.000000	7.865806E+12
61.800000	2031.000000	68.401000	2.459899E-10	8.256437E+12	1971.666667	7.970828E+12
62.000000	1891.000000	68.401000	2.463239E-10	7.676884E+12	1919.666667	7.758126E+12
62.200000	1960.000000	68.398000	2.462919E-10	7.958037E+12	1958.333333	7.914445E+12
62.400000	1964.000000	68.398000	2.462741E-10	7.974854E+12	1966.333333	7.943307E+12
62.600000	1991.000000	68.395000	2.464340E-10	8.079242E+12	1992.000000	8.048927E+12
62.800000	1896.000000	68.395000	2.464304E-10	7.693856E+12	1930.666667	7.811803E+12
63.000000	1878.000000	68.395000	2.465548E-10	7.616968E+12	1895.000000	7.659203E+12
63.200000	1902.000000	68.392000	2.457945E-10	7.738172E+12	1873.666667	7.583491E+12
63.400000	1846.000000	68.392000	2.460041E-10	7.503940E+12	1874.000000	7.573936E+12
63.600000	1811.000000	68.389000	2.457341E-10	7.369755E+12	1813.666667	7.334039E+12
63.800000	1765.000000	68.389000	2.463487E-10	7.164641E+12	1749.333333	7.074213E+12
64.000000	1764.000000	68.387000	2.466294E-10	7.152432E+12	1732.000000	7.004671E+12
64.200000	1652.000000	68.387000	2.461285E-10	6.711941E+12	1650.333333	6.679205E+12
64.400000	1667.000000	68.384000	2.460609E-10	6.774746E+12	1637.000000	6.622670E+12
64.600000	1690.000000	68.384000	2.460467E-10	6.868615E+12	1621.333333	6.561401E+12
64.800000	1604.000000	68.384000	2.461533E-10	6.516264E+12	1589.666667	6.433036E+12
65.000000	1590.000000	68.382000	2.459686E-10	6.464240E+12	1572.666667	6.365470E+12
65.200000	1594.000000	68.382000	2.461320E-10	6.476200E+12	1517.666667	6.138158E+12
65.400000	1526.000000	68.379000	2.461000E-10	6.200731E+12	1508.333333	6.100879E+12
65.600000	1472.000000	68.379000	2.459259E-10	5.985543E+12	1488.000000	6.019615E+12
65.800000	1524.000000	68.376000	2.464908E-10	6.182787E+12	1465.000000	5.922205E+12
66.000000	1523.000000	68.376000	2.462777E-10	6.184076E+12	1490.000000	6.026738E+12
66.200000	1485.000000	68.372000	2.468390E-10	6.016067E+12	1419.666667	5.741182E+12
66.400000	1482.000000	68.372000	2.455067E-10	6.036495E+12	1442.333333	5.842319E+12
66.600000	1401.000000	68.372000	2.461746E-10	5.691083E+12	1438.333333	5.820018E+12
66.800000	1408.000000	68.369000	2.466187E-10	5.709218E+12	1418.666667	5.738103E+12
67.000000	1485.000000	68.367000	2.464056E-10	6.026649E+12	1473.000000	5.956642E+12
67.200000	1485.000000	68.367000	2.462848E-10	6.029605E+12	1456.000000	5.891376E+12
67.400000	1387.000000	68.367000	2.467324E-10	5.621475E+12	1416.333333	5.725517E+12
67.600000	1471.000000	68.364000	2.458478E-10	5.983377E+12	1433.666667	5.805815E+12
67.800000	1429.000000	68.364000	2.457199E-10	5.815565E+12	1423.666667	5.764642E+12
68.000000	1391.000000	68.361000	2.459473E-10	5.655683E+12	1396.000000	5.652506E+12
68.200000	1376.000000	68.361000	2.464802E-10	5.582599E+12	1401.666667	5.669590E+12
68.400000	1409.000000	68.358000	2.458940E-10	5.730111E+12	1413.333333	5.723004E+12
68.600000	1419.000000	68.358000	2.457234E-10	5.774786E+12	1397.000000	5.655841E+12
68.800000	1440.000000	68.356000	2.458407E-10	5.857452E+12	1441.666667	5.836140E+12
69.000000	1447.000000	68.356000	2.458691E-10	5.885245E+12	1411.333333	5.716453E+12
69.200000	1379.000000	68.353000	2.459473E-10	5.606892E+12	1377.000000	5.575374E+12
69.400000	1407.000000	68.353000	2.464482E-10	5.709110E+12	1404.333333	5.680962E+12
69.600000	1426.000000	68.353000	2.463878E-10	5.787624E+12	1390.000000	5.624597E+12
69.800000	1419.000000	68.350000	2.466010E-10	5.754235E+12	1378.000000	5.576907E+12
70.000000	1374.000000	68.350000	2.458265E-10	5.589308E+12	1401.333333	5.674927E+12
70.200000	1428.000000	68.348000	2.461746E-10	5.800761E+12	1382.666667	5.596626E+12
70.400000	1423.000000	68.348000	2.462102E-10	5.779614E+12	1407.666667	5.700259E+12
70.600000	1384.000000	68.345000	2.463096E-10	5.618945E+12	1384.666667	5.606323E+12
70.800000	1354.000000	68.345000	2.462492E-10	5.498495E+12	1363.333333	5.520911E+12
71.000000	1424.000000	68.342000	2.464482E-10	5.778090E+12	1409.333333	5.700097E+12
71.200000	1366.000000	68.342000	2.459544E-10	5.553875E+12	1355.333333	5.489028E+12
71.400000	1416.000000	68.342000	2.457838E-10	5.761161E+12	1391.000000	5.634327E+12
71.600000	1337.000000	68.340000	2.457945E-10	5.439503E+12	1367.333333	5.539085E+12
71.800000	1388.000000	68.340000	2.457661E-10	5.647646E+12	1369.000000	5.546821E+12
72.000000	1393.000000	68.337000	2.460361E-10	5.661771E+12	1379.666667	5.587894E+12
72.200000	1398.000000	68.337000	2.460716E-10	5.681273E+12	1361.000000	5.513726E+12
72.400000	1290.000000	68.334000	2.460894E-10	5.241997E+12	1345.000000	5.445710E+12
72.600000	1359.000000	68.334000	2.460467E-10	5.523342E+12	1382.333333	5.598118E+12
72.800000	1349.000000	68.331000	2.457767E-10	5.488722E+12	1352.666667	5.482714E+12
73.000000	1362.000000	68.331000	2.458336E-10	5.540333E+12	1361.333333	5.512635E+12
73.200000	1395.000000	68.327000	2.459757E-10	5.671292E+12	1389.000000	5.628482E+12
73.400000	1382.000000	68.327000	2.458513E-10	5.621284E+12	1359.666667	5.512671E+12
73.600000	1302.000000	68.327000	2.459863E-10	5.292978E+12	1344.666667	5.451826E+12
73.800000	1297.000000	68.324000	2.460254E-10	5.271813E+12	1336.666667	5.416823E+12
74.000000	1400.000000	68.324000	2.458087E-10	5.695486E+12	1384.000000	5.612683E+12
74.200000	1481.000000	68.321000	2.463167E-10	6.012585E+12	1408.333333	5.701755E+12
74.400000	1345.000000	68.321000	2.464802E-10	5.456828E+12	1319.666667	5.343531E+12
74.600000	1342.000000	68.317000	2.464198E-10	5.445991E+12	1350.333333	5.469984E+12
74.800000	1300.000000	68.317000	2.464908E-10	5.274031E+12	1334.666667	5.403957E+12
75.000000	1370.000000	68.314000	2.465796E-10	5.556015E+12	1369.666667	5.547006E+12

Scan : 	4

50.000000	2103.000000	68.306000	2.463132E-10	8.537910E+12	2048.500000	8.280545E+12
50.200000	1942.000000	68.303000	2.461960E-10	7.888024E+12	1982.750000	8.021012E+12
50.400000	2034.000000	68.303000	2.463239E-10	8.257420E+12	2001.250000	8.094323E+12
50.600000	2051.000000	68.300000	2.462741E-10	8.328119E+12	1998.500000	8.081586E+12
50.800000	1977.000000	68.300000	2.461675E-10	8.031117E+12	1984.750000	8.025289E+12
51.000000	2008.000000	68.297000	2.462457E-10	8.154457E+12	1978.000000	8.002672E+12
51.200000	1990.000000	68.297000	2.462244E-10	8.082058E+12	1948.750000	7.875339E+12
51.400000	1896.000000	68.294000	2.462883E-10	7.698295E+12	1937.000000	7.831950E+12
51.600000	1936.000000	68.294000	2.462528E-10	7.861840E+12	1946.250000	7.870419E+12
51.800000	2032.000000	68.294000	2.462777E-10	8.250849E+12	1937.250000	7.845167E+12
52.000000	1963.000000	68.291000	2.462492E-10	7.971600E+12	1982.500000	8.016075E+12
52.200000	1856.000000	68.291000	2.461462E-10	7.540234E+12	1914.250000	7.748892E+12
52.400000	1910.000000	68.288000	2.461427E-10	7.759726E+12	1948.500000	7.887185E+12
52.600000	1958.000000	68.288000	2.463914E-10	7.946706E+12	1911.000000	7.724888E+12
52.800000	1900.000000	68.285000	2.461960E-10	7.717428E+12	1899.250000	7.697518E+12
53.000000	1879.000000	68.285000	2.462173E-10	7.631470E+12	1913.000000	7.745675E+12
53.200000	1931.000000	68.283000	2.461569E-10	7.844590E+12	1893.750000	7.659274E+12
53.400000	1848.000000	68.283000	2.462279E-10	7.505242E+12	1870.750000	7.560706E+12
53.600000	1906.000000	68.283000	2.461427E-10	7.743476E+12	1889.500000	7.648044E+12
53.800000	1927.000000	68.280000	2.462208E-10	7.826309E+12	1883.000000	7.619156E+12
54.000000	1972.000000	68.280000	2.461888E-10	8.010113E+12	1886.250000	7.630438E+12
54.200000	1823.000000	68.277000	2.461782E-10	7.405205E+12	1839.250000	7.436920E+12
54.400000	1887.000000	68.277000	2.460361E-10	7.669606E+12	1865.250000	7.544242E+12
54.600000	1913.000000	68.274000	2.460858E-10	7.773711E+12	1836.750000	7.426164E+12
54.800000	1887.000000	68.274000	2.461356E-10	7.666506E+12	1858.000000	7.522962E+12
55.000000	1741.000000	68.271000	2.461000E-10	7.074360E+12	1797.500000	7.277273E+12
55.200000	1892.000000	68.271000	2.459366E-10	7.693040E+12	1813.750000	7.349350E+12
55.400000	1852.000000	68.267000	2.461746E-10	7.523116E+12	1847.500000	7.470764E+12
55.600000	1849.000000	68.267000	2.461640E-10	7.511253E+12	1795.250000	7.263810E+12
55.800000	1879.000000	68.267000	2.460361E-10	7.637091E+12	1835.000000	7.432622E+12
56.000000	1860.000000	68.264000	2.460609E-10	7.559104E+12	1813.500000	7.343053E+12
56.200000	1816.000000	68.264000	2.460858E-10	7.379540E+12	1805.500000	7.302127E+12
56.400000	1887.000000	68.261000	2.460467E-10	7.669276E+12	1807.250000	7.309492E+12
56.600000	1757.000000	68.261000	2.458940E-10	7.145355E+12	1794.500000	7.257921E+12
56.800000	1762.000000	68.258000	2.460574E-10	7.160931E+12	1782.750000	7.214681E+12
57.000000	1757.000000	68.258000	2.459934E-10	7.142468E+12	1772.500000	7.170974E+12
57.200000	1688.000000	68.256000	2.461000E-10	6.859000E+12	1751.000000	7.089495E+12
57.400000	1784.000000	68.256000	2.458833E-10	7.255474E+12	1778.500000	7.201599E+12
57.600000	1710.000000	68.253000	2.460254E-10	6.950502E+12	1719.000000	6.959721E+12
57.800000	1815.000000	68.253000	2.459508E-10	7.379525E+12	1757.750000	7.117653E+12
58.000000	1811.000000	68.253000	2.457945E-10	7.367944E+12	1748.500000	7.075999E+12
58.200000	1786.000000	68.251000	2.459828E-10	7.260670E+12	1765.750000	7.141995E+12
58.400000	1752.000000	68.251000	2.461569E-10	7.117412E+12	1758.500000	7.123179E+12
58.600000	1654.000000	68.248000	2.461107E-10	6.720553E+12	1706.500000	6.905681E+12
58.800000	1756.000000	68.248000	2.459117E-10	7.140775E+12	1714.000000	6.939165E+12
59.000000	1828.000000	68.245000	2.459082E-10	7.433668E+12	1771.500000	7.170267E+12
59.200000	1773.000000	68.245000	2.459721E-10	7.208135E+12	1756.750000	7.112963E+12
59.400000	1763.000000	68.245000	2.459544E-10	7.167995E+12	1768.500000	7.166528E+12
59.600000	1771.000000	68.243000	2.459082E-10	7.201875E+12	1777.000000	7.194063E+12
59.800000	1832.000000	68.243000	2.458549E-10	7.451550E+12	1786.250000	7.235001E+12
60.000000	1751.000000	68.240000	2.459331E-10	7.119822E+12	1773.750000	7.187077E+12
60.200000	1896.000000	68.240000	2.457554E-10	7.714988E+12	1836.500000	7.444083E+12
60.400000	1887.000000	68.240000	2.460538E-10	7.669054E+12	1827.000000	7.398965E+12
60.600000	1836.000000	68.237000	2.458442E-10	7.468144E+12	1848.250000	7.484172E+12
60.800000	1843.000000	68.237000	2.459188E-10	7.494344E+12	1833.250000	7.422247E+12
61.000000	1850.000000	68.234000	2.458549E-10	7.524764E+12	1887.500000	7.645988E+12
61.200000	1890.000000	68.234000	2.459970E-10	7.683021E+12	1896.750000	7.681387E+12
61.400000	1927.000000	68.232000	2.459259E-10	7.835694E+12	1900.000000	7.693112E+12
61.600000	1966.000000	68.232000	2.458620E-10	7.996356E+12	1950.250000	7.898444E+12
61.800000	1949.000000	68.229000	2.459366E-10	7.924807E+12	1966.000000	7.959323E+12
62.000000	1993.000000	68.229000	2.459721E-10	8.102545E+12	1938.000000	7.844231E+12
62.200000	1950.000000	68.229000	2.460361E-10	7.925666E+12	1956.250000	7.917250E+12
62.400000	1996.000000	68.227000	2.458727E-10	8.118022E+12	1973.750000	7.986986E+12
62.600000	1902.000000	68.227000	2.459366E-10	7.733700E+12	1969.500000	7.970120E+12
62.800000	1906.000000	68.224000	2.458869E-10	7.751531E+12	1924.500000	7.796735E+12
63.000000	1958.000000	68.224000	2.457803E-10	7.966464E+12	1910.750000	7.736019E+12
63.200000	1923.000000	68.221000	2.459792E-10	7.817734E+12	1886.000000	7.642052E+12
63.400000	1886.000000	68.221000	2.459970E-10	7.666760E+12	1877.000000	7.597142E+12
63.600000	1822.000000	68.218000	2.456844E-10	7.416018E+12	1815.750000	7.354533E+12
63.800000	1754.000000	68.218000	2.455849E-10	7.142133E+12	1750.500000	7.091193E+12
64.000000	1778.000000	68.216000	2.456630E-10	7.237557E+12	1743.500000	7.062893E+12
64.200000	1761.000000	68.216000	2.458052E-10	7.164210E+12	1678.000000	6.800456E+12
64.400000	1664.000000	68.216000	2.455600E-10	6.776348E+12	1643.750000	6.661089E+12
64.600000	1639.000000	68.213000	2.451195E-10	6.686535E+12	1625.750000	6.592684E+12
64.800000	1562.000000	68.213000	2.460361E-10	6.348662E+12	1582.750000	6.411942E+12
65.000000	1575.000000	68.211000	2.459650E-10	6.403350E+12	1573.250000	6.374940E+12
65.200000	1525.000000	68.211000	2.458798E-10	6.202218E+12	1519.500000	6.154173E+12
65.400000	1500.000000	68.209000	2.455067E-10	6.109813E+12	1506.250000	6.103113E+12
65.600000	1453.000000	68.209000	2.454676E-10	5.919315E+12	1479.250000	5.994540E+12
65.800000	1500.000000	68.205000	2.456133E-10	6.107161E+12	1473.750000	5.968444E+12
66.000000	1462.000000	68.205000	2.451799E-10	5.962968E+12	1483.000000	6.010796E+12
66.200000	1475.000000	68.202000	2.460254E-10	5.995316E+12	1433.500000	5.804715E+12
66.400000	1430.000000	68.202000	2.460361E-10	5.812155E+12	1439.250000	5.834778E+12
66.600000	1381.000000	68.202000	2.463167E-10	5.606603E+12	1424.000000	5.766665E+12
66.800000	1425.000000	68.200000	2.452225E-10	5.811049E+12	1420.250000	5.756340E+12
67.000000	1460.000000	68.200000	2.455529E-10	5.945766E+12	1469.750000	5.953923E+12
67.200000	1449.000000	68.197000	2.458158E-10	5.894658E+12	1454.250000	5.892196E+12
67.400000	1554.000000	68.197000	2.457128E-10	6.324457E+12	1450.750000	5.875252E+12
67.600000	1537.000000	68.194000	2.458798E-10	6.251022E+12	1459.500000	5.917116E+12
67.800000	1484.000000	68.194000	2.459828E-10	6.032942E+12	1438.750000	5.831717E+12
68.000000	1404.000000	68.192000	2.459899E-10	5.707551E+12	1398.000000	5.666268E+12
68.200000	1406.000000	68.192000	2.451337E-10	5.735645E+12	1402.750000	5.686104E+12
68.400000	1426.000000	68.189000	2.452687E-10	5.814032E+12	1416.500000	5.745761E+12
68.600000	1408.000000	68.189000	2.460574E-10	5.722242E+12	1399.750000	5.672441E+12
68.800000	1405.000000	68.189000	2.453895E-10	5.725591E+12	1432.500000	5.808503E+12
69.000000	1397.000000	68.186000	2.452047E-10	5.697281E+12	1407.750000	5.711660E+12
69.200000	1393.000000	68.186000	2.453007E-10	5.678744E+12	1381.000000	5.601216E+12
69.400000	1399.000000	68.183000	2.451657E-10	5.706345E+12	1403.000000	5.687308E+12
69.600000	1462.000000	68.183000	2.448424E-10	5.971188E+12	1408.000000	5.711245E+12
69.800000	1386.000000	68.180000	2.457377E-10	5.640160E+12	1380.000000	5.592720E+12
70.000000	1424.000000	68.180000	2.456169E-10	5.797647E+12	1407.000000	5.705607E+12
70.200000	1394.000000	68.177000	2.464162E-10	5.657096E+12	1385.500000	5.611743E+12
70.400000	1447.000000	68.177000	2.453469E-10	5.897772E+12	1417.500000	5.749637E+12
70.600000	1335.000000	68.177000	2.454534E-10	5.438914E+12	1372.250000	5.564471E+12
70.800000	1422.000000	68.174000	2.454073E-10	5.794449E+12	1378.000000	5.589295E+12
71.000000	1393.000000	68.174000	2.454854E-10	5.674472E+12	1405.250000	5.693690E+12
71.200000	1390.000000	68.172000	2.453753E-10	5.664792E+12	1364.000000	5.532969E+12
71.400000	1358.000000	68.172000	2.448104E-10	5.547150E+12	1382.750000	5.612533E+12
71.600000	1329.000000	68.169000	2.454748E-10	5.413998E+12	1357.750000	5.507813E+12
71.800000	1302.000000	68.169000	2.450768E-10	5.312620E+12	1352.250000	5.488271E+12
72.000000	1438.000000	68.166000	2.448814E-10	5.872230E+12	1394.250000	5.658978E+12
72.200000	1462.000000	68.166000	2.448282E-10	5.971534E+12	1386.250000	5.628178E+12
72.400000	1322.000000	68.163000	2.448139E-10	5.400020E+12	1339.250000	5.434288E+12
72.600000	1347.000000	68.163000	2.454073E-10	5.488834E+12	1373.500000	5.570797E+12
72.800000	1392.000000	68.163000	2.454215E-10	5.671875E+12	1362.500000	5.530004E+12
73.000000	1430.000000	68.160000	2.457021E-10	5.820056E+12	1378.500000	5.589490E+12
73.200000	1394.000000	68.160000	2.445546E-10	5.700159E+12	1390.250000	5.646401E+12
73.400000	1398.000000	68.157000	2.452119E-10	5.701192E+12	1369.250000	5.559801E+12
73.600000	1326.000000	68.157000	2.452829E-10	5.406003E+12	1340.000000	5.440370E+12
73.800000	1387.000000	68.153000	2.452687E-10	5.655022E+12	1349.250000	5.476373E+12
74.000000	1430.000000	68.153000	2.453469E-10	5.828482E+12	1395.500000	5.666633E+12
74.200000	1335.000000	68.151000	2.450342E-10	5.448219E+12	1390.000000	5.638371E+12
74.400000	1318.000000	68.151000	2.444374E-10	5.391974E+12	1319.250000	5.355641E+12
74.600000	1367.000000	68.148000	2.444978E-10	5.591052E+12	1354.500000	5.500251E+12
74.800000	1338.000000	68.148000	2.453433E-10	5.453583E+12	1335.500000	5.416364E+12
75.000000	1308.000000	68.148000	2.452296E-10	5.333777E+12	1354.250000	5.493698E+12

Scan : 	5

50.000000	2011.000000	68.139000	2.451692E-10	8.202499E+12	2041.000000	8.264935E+12
50.200000	2073.000000	68.136000	2.460787E-10	8.424134E+12	2000.800000	8.101637E+12
50.400000	2067.000000	68.136000	2.453007E-10	8.426393E+12	2014.400000	8.160737E+12
50.600000	2021.000000	68.136000	2.448850E-10	8.252853E+12	2003.000000	8.115839E+12
50.800000	2041.000000	68.134000	2.451870E-10	8.324259E+12	1996.000000	8.085083E+12
51.000000	2050.000000	68.134000	2.451053E-10	8.363752E+12	1992.400000	8.074888E+12
51.200000	2015.000000	68.131000	2.450093E-10	8.224178E+12	1962.000000	7.945106E+12
51.400000	1964.000000	68.131000	2.455067E-10	7.999782E+12	1942.400000	7.865516E+12
51.600000	1938.000000	68.127000	2.445049E-10	7.926222E+12	1944.600000	7.881579E+12
51.800000	1873.000000	68.127000	2.446860E-10	7.654708E+12	1924.400000	7.807075E+12
52.000000	1950.000000	68.124000	2.441958E-10	7.985395E+12	1976.000000	8.009939E+12
52.200000	1861.000000	68.124000	2.454392E-10	7.582326E+12	1903.600000	7.715578E+12
52.400000	1959.000000	68.121000	2.447536E-10	8.003968E+12	1950.600000	7.910542E+12
52.600000	1975.000000	68.121000	2.447571E-10	8.069225E+12	1923.800000	7.793755E+12
52.800000	1881.000000	68.121000	2.445795E-10	7.690751E+12	1895.600000	7.696165E+12
53.000000	1910.000000	68.119000	2.446150E-10	7.808188E+12	1912.400000	7.758178E+12
53.200000	1918.000000	68.119000	2.449880E-10	7.828955E+12	1898.600000	7.693210E+12
53.400000	1885.000000	68.116000	2.453113E-10	7.684114E+12	1873.600000	7.585387E+12
53.600000	1956.000000	68.116000	2.453895E-10	7.971001E+12	1902.800000	7.712635E+12
53.800000	1825.000000	68.113000	2.444800E-10	7.464823E+12	1871.400000	7.588289E+12
54.000000	1877.000000	68.113000	2.449596E-10	7.662488E+12	1884.400000	7.636848E+12
54.200000	1891.000000	68.110000	2.451088E-10	7.714941E+12	1849.600000	7.492524E+12
54.400000	1896.000000	68.110000	2.451479E-10	7.734107E+12	1871.400000	7.582215E+12
54.600000	2002.000000	68.107000	2.449383E-10	8.173487E+12	1869.800000	7.575628E+12
54.800000	1849.000000	68.107000	2.453078E-10	7.537469E+12	1856.200000	7.525864E+12
55.000000	1889.000000	68.107000	2.443272E-10	7.731436E+12	1815.800000	7.368105E+12
55.200000	1938.000000	68.104000	2.446079E-10	7.922884E+12	1838.600000	7.464057E+12
55.400000	1785.000000	68.104000	2.450840E-10	7.283217E+12	1835.000000	7.433254E+12
55.600000	1844.000000	68.101000	2.451372E-10	7.522318E+12	1805.000000	7.315512E+12
55.800000	1782.000000	68.101000	2.447784E-10	7.280054E+12	1824.400000	7.402109E+12
56.000000	1882.000000	68.099000	2.445297E-10	7.696407E+12	1827.200000	7.413724E+12
56.200000	1834.000000	68.099000	2.444018E-10	7.504036E+12	1811.200000	7.342509E+12
56.400000	1839.000000	68.096000	2.444658E-10	7.522525E+12	1813.600000	7.352098E+12
56.600000	1792.000000	68.096000	2.446399E-10	7.325052E+12	1794.000000	7.271347E+12
56.800000	1789.000000	68.093000	2.441318E-10	7.328009E+12	1784.000000	7.237347E+12
57.000000	1768.000000	68.093000	2.450378E-10	7.215213E+12	1771.600000	7.179822E+12
57.200000	1793.000000	68.093000	2.449205E-10	7.320743E+12	1759.400000	7.135744E+12
57.400000	1737.000000	68.090000	2.454676E-10	7.076290E+12	1770.200000	7.176537E+12
57.600000	1793.000000	68.090000	2.443699E-10	7.337238E+12	1733.800000	7.035224E+12
57.800000	1698.000000	68.087000	2.446860E-10	6.939506E+12	1745.800000	7.082024E+12
58.000000	1821.000000	68.087000	2.448814E-10	7.436253E+12	1763.000000	7.148050E+12
58.200000	1755.000000	68.084000	2.449241E-10	7.165485E+12	1763.600000	7.146693E+12
58.400000	1735.000000	68.084000	2.448779E-10	7.085164E+12	1753.800000	7.115576E+12
58.600000	1795.000000	68.082000	2.448104E-10	7.332205E+12	1724.200000	6.990985E+12
58.800000	1708.000000	68.082000	2.449525E-10	6.972780E+12	1712.800000	6.945888E+12
59.000000	1772.000000	68.082000	2.449205E-10	7.235001E+12	1771.600000	7.183214E+12
59.200000	1797.000000	68.079000	2.444658E-10	7.350721E+12	1764.800000	7.160515E+12
59.400000	1770.000000	68.079000	2.443166E-10	7.244698E+12	1768.800000	7.182162E+12
59.600000	1748.000000	68.079000	2.439329E-10	7.165905E+12	1771.200000	7.188432E+12
59.800000	1819.000000	68.077000	2.450307E-10	7.423560E+12	1792.800000	7.272713E+12
60.000000	1748.000000	68.077000	2.446718E-10	7.144264E+12	1768.600000	7.178514E+12
60.200000	1832.000000	68.074000	2.444125E-10	7.495525E+12	1835.600000	7.454371E+12
60.400000	1845.000000	68.074000	2.443024E-10	7.552116E+12	1830.600000	7.429595E+12
60.600000	1756.000000	68.071000	2.442206E-10	7.190221E+12	1829.800000	7.425382E+12
60.800000	1790.000000	68.071000	2.444160E-10	7.323579E+12	1824.600000	7.402513E+12
61.000000	1811.000000	68.068000	2.444196E-10	7.409389E+12	1872.200000	7.598668E+12
61.200000	1875.000000	68.068000	2.443343E-10	7.673912E+12	1892.400000	7.679892E+12
61.400000	1897.000000	68.068000	2.446825E-10	7.752904E+12	1899.400000	7.705070E+12
61.600000	1948.000000	68.065000	2.449454E-10	7.952793E+12	1949.800000	7.909314E+12
61.800000	1963.000000	68.065000	2.446612E-10	8.023340E+12	1965.400000	7.972126E+12
62.000000	1920.000000	68.061000	2.441816E-10	7.863000E+12	1934.400000	7.847985E+12
62.200000	2017.000000	68.061000	2.443734E-10	8.253762E+12	1968.400000	7.984552E+12
62.400000	2037.000000	68.058000	2.446185E-10	8.327252E+12	1986.400000	8.055039E+12
62.600000	1950.000000	68.058000	2.444906E-10	7.975767E+12	1965.600000	7.971249E+12
62.800000	1941.000000	68.055000	2.446647E-10	7.933306E+12	1927.800000	7.824049E+12
63.000000	1893.000000	68.055000	2.445759E-10	7.739929E+12	1907.200000	7.736801E+12
63.200000	1886.000000	68.053000	2.445546E-10	7.711979E+12	1886.000000	7.656037E+12
63.400000	1852.000000	68.053000	2.445226E-10	7.573942E+12	1872.000000	7.592502E+12
63.600000	1890.000000	68.053000	2.446967E-10	7.723848E+12	1830.600000	7.428396E+12
63.800000	1793.000000	68.051000	2.447251E-10	7.326588E+12	1759.000000	7.138272E+12
64.000000	1739.000000	68.051000	2.446825E-10	7.107169E+12	1742.600000	7.071748E+12
64.200000	1775.000000	68.048000	2.445937E-10	7.256933E+12	1697.400000	6.891751E+12
64.400000	1672.000000	68.048000	2.447536E-10	6.831360E+12	1649.400000	6.695144E+12
64.600000	1677.000000	68.046000	2.444374E-10	6.860652E+12	1636.000000	6.646278E+12
64.800000	1567.000000	68.046000	2.444551E-10	6.410175E+12	1579.600000	6.411589E+12
65.000000	1587.000000	68.043000	2.445155E-10	6.490386E+12	1576.000000	6.398029E+12
65.200000	1596.000000	68.043000	2.445049E-10	6.527477E+12	1534.800000	6.228834E+12
65.400000	1549.000000	68.040000	2.443237E-10	6.339950E+12	1514.800000	6.150480E+12
65.600000	1533.000000	68.040000	2.443876E-10	6.272822E+12	1490.000000	6.050197E+12
65.800000	1515.000000	68.040000	2.448708E-10	6.186936E+12	1482.000000	6.012143E+12
66.000000	1490.000000	68.037000	2.449667E-10	6.082459E+12	1484.400000	6.025128E+12
66.200000	1461.000000	68.037000	2.444480E-10	5.976731E+12	1439.000000	5.839118E+12
66.400000	1473.000000	68.034000	2.445333E-10	6.023719E+12	1446.000000	5.872567E+12
66.600000	1473.000000	68.034000	2.444160E-10	6.026610E+12	1433.800000	5.818654E+12
66.800000	1481.000000	68.032000	2.443912E-10	6.059956E+12	1432.400000	5.817063E+12
67.000000	1483.000000	68.032000	2.443983E-10	6.067964E+12	1472.400000	5.976731E+12
67.200000	1455.000000	68.029000	2.444622E-10	5.951840E+12	1454.400000	5.904125E+12
67.400000	1433.000000	68.029000	2.442846E-10	5.866109E+12	1447.200000	5.873423E+12
67.600000	1429.000000	68.029000	2.441531E-10	5.852885E+12	1453.400000	5.904270E+12
67.800000	1439.000000	68.026000	2.447713E-10	5.878957E+12	1438.800000	5.841165E+12
68.000000	1452.000000	68.026000	2.449880E-10	5.926821E+12	1408.800000	5.718378E+12
68.200000	1428.000000	68.023000	2.447784E-10	5.833848E+12	1407.800000	5.715653E+12
68.400000	1518.000000	68.023000	2.444409E-10	6.210090E+12	1436.800000	5.838626E+12
68.600000	1387.000000	68.021000	2.444764E-10	5.673349E+12	1397.200000	5.672623E+12
68.800000	1418.000000	68.021000	2.443485E-10	5.803187E+12	1429.600000	5.807439E+12
69.000000	1426.000000	68.017000	2.445937E-10	5.830077E+12	1411.400000	5.735343E+12
69.200000	1362.000000	68.017000	2.446612E-10	5.566882E+12	1377.200000	5.594350E+12
69.400000	1479.000000	68.015000	2.448282E-10	6.040971E+12	1418.200000	5.758041E+12
69.600000	1465.000000	68.015000	2.447571E-10	5.985526E+12	1419.400000	5.766101E+12
69.800000	1400.000000	68.015000	2.441602E-10	5.733940E+12	1384.000000	5.620964E+12
70.000000	1441.000000	68.013000	2.441460E-10	5.902206E+12	1413.800000	5.744927E+12
70.200000	1404.000000	68.013000	2.441922E-10	5.749569E+12	1389.200000	5.639309E+12
70.400000	1427.000000	68.010000	2.437979E-10	5.853209E+12	1419.400000	5.770351E+12
70.600000	1404.000000	68.010000	2.449987E-10	5.730643E+12	1378.600000	5.597705E+12
70.800000	1516.000000	68.007000	2.444338E-10	6.202088E+12	1405.600000	5.711854E+12
71.000000	1400.000000	68.007000	2.442384E-10	5.732104E+12	1404.200000	5.701373E+12
71.200000	1390.000000	68.004000	2.442775E-10	5.690250E+12	1369.200000	5.564425E+12
71.400000	1352.000000	68.004000	2.443095E-10	5.533964E+12	1376.600000	5.596819E+12
71.600000	1388.000000	68.001000	2.441247E-10	5.685619E+12	1363.800000	5.543375E+12
71.800000	1340.000000	68.001000	2.447358E-10	5.475292E+12	1349.800000	5.485675E+12
72.000000	1391.000000	68.001000	2.446292E-10	5.686157E+12	1393.600000	5.664414E+12
72.200000	1409.000000	67.999000	2.449276E-10	5.752720E+12	1390.800000	5.653087E+12
72.400000	1392.000000	67.999000	2.439293E-10	5.706572E+12	1349.800000	5.488745E+12
72.600000	1331.000000	67.996000	2.441354E-10	5.451893E+12	1365.000000	5.547016E+12
72.800000	1383.000000	67.996000	2.446789E-10	5.652306E+12	1366.600000	5.554465E+12
73.000000	1309.000000	67.993000	2.444267E-10	5.355389E+12	1364.600000	5.542670E+12
73.200000	1366.000000	67.993000	2.444374E-10	5.588343E+12	1385.400000	5.634789E+12
73.400000	1307.000000	67.990000	2.445617E-10	5.344255E+12	1356.800000	5.516692E+12
73.600000	1423.000000	67.990000	2.445404E-10	5.819079E+12	1356.600000	5.516112E+12
73.800000	1385.000000	67.986000	2.445653E-10	5.663109E+12	1356.400000	5.513720E+12
74.000000	1344.000000	67.986000	2.445795E-10	5.495146E+12	1385.200000	5.632336E+12
74.200000	1354.000000	67.986000	2.446079E-10	5.535389E+12	1382.800000	5.617775E+12
74.400000	1388.000000	67.984000	2.448814E-10	5.668050E+12	1333.000000	5.418123E+12
74.600000	1375.000000	67.984000	2.443166E-10	5.627943E+12	1358.600000	5.525789E+12
74.800000	1361.000000	67.981000	2.442704E-10	5.571694E+12	1340.600000	5.447430E+12
75.000000	1351.000000	67.981000	2.443308E-10	5.529389E+12	1353.600000	5.500837E+12

Scan : 	6

50.000000	2035.000000	67.972000	2.442739E-10	8.330812E+12	2040.000000	8.275915E+12
50.200000	2028.000000	67.972000	2.445226E-10	8.293712E+12	2005.333333	8.133649E+12
50.400000	1990.000000	67.970000	2.443095E-10	8.145406E+12	2010.333333	8.158182E+12
50.600000	1969.000000	67.970000	2.443450E-10	8.058278E+12	1997.333333	8.106246E+12
50.800000	1975.000000	67.966000	2.443379E-10	8.083069E+12	1992.500000	8.084747E+12
51.000000	2046.000000	67.966000	2.444445E-10	8.369998E+12	2001.333333	8.124073E+12
51.200000	1999.000000	67.963000	2.442810E-10	8.183199E+12	1968.166667	7.984788E+12
51.400000	1908.000000	67.963000	2.443912E-10	7.807155E+12	1936.666667	7.855789E+12
51.600000	1973.000000	67.960000	2.443485E-10	8.074533E+12	1949.333333	7.913738E+12
51.800000	1969.000000	67.960000	2.444089E-10	8.056171E+12	1931.833333	7.848591E+12
52.000000	1971.000000	67.960000	2.446612E-10	8.056038E+12	1975.166667	8.017622E+12
52.200000	1903.000000	67.957000	2.446257E-10	7.779232E+12	1903.500000	7.726187E+12
52.400000	1890.000000	67.957000	2.447180E-10	7.723175E+12	1940.500000	7.879314E+12
52.600000	1980.000000	67.953000	2.448353E-10	8.087069E+12	1933.166667	7.842641E+12
52.800000	1902.000000	67.953000	2.446896E-10	7.773113E+12	1896.666667	7.708989E+12
53.000000	1938.000000	67.950000	2.443663E-10	7.930717E+12	1916.666667	7.786934E+12
53.200000	1975.000000	67.950000	2.444516E-10	8.079309E+12	1911.333333	7.757560E+12
53.400000	1893.000000	67.947000	2.445013E-10	7.742290E+12	1876.833333	7.611538E+12
53.600000	1886.000000	67.947000	2.445510E-10	7.712093E+12	1900.000000	7.712545E+12
53.800000	1916.000000	67.944000	2.446292E-10	7.832262E+12	1878.833333	7.628951E+12
54.000000	1871.000000	67.944000	2.446328E-10	7.648198E+12	1882.166667	7.638739E+12
54.200000	1860.000000	67.944000	2.446718E-10	7.602020E+12	1851.333333	7.510773E+12
54.400000	1853.000000	67.942000	2.445546E-10	7.577040E+12	1868.333333	7.581352E+12
54.600000	1905.000000	67.942000	2.446860E-10	7.785488E+12	1875.666667	7.610605E+12
54.800000	1862.000000	67.940000	2.446079E-10	7.612183E+12	1857.166667	7.540250E+12
55.000000	1859.000000	67.940000	2.446754E-10	7.597821E+12	1823.000000	7.406391E+12
55.200000	1762.000000	67.937000	2.443201E-10	7.211850E+12	1825.833333	7.422022E+12
55.400000	1916.000000	67.937000	2.443805E-10	7.840233E+12	1848.500000	7.501084E+12
55.600000	1795.000000	67.934000	2.442846E-10	7.347987E+12	1803.333333	7.320924E+12
55.800000	1895.000000	67.934000	2.443770E-10	7.754412E+12	1836.166667	7.460826E+12
56.000000	1752.000000	67.931000	2.443592E-10	7.169773E+12	1814.666667	7.373065E+12
56.200000	1848.000000	67.931000	2.441212E-10	7.570010E+12	1817.333333	7.380426E+12
56.400000	1830.000000	67.931000	2.439720E-10	7.500861E+12	1816.333333	7.376892E+12
56.600000	1704.000000	67.928000	2.446363E-10	6.965442E+12	1779.000000	7.220363E+12
56.800000	1809.000000	67.928000	2.447713E-10	7.390572E+12	1788.166667	7.262884E+12
57.000000	1889.000000	67.925000	2.443379E-10	7.731097E+12	1791.166667	7.271701E+12
57.200000	1763.000000	67.925000	2.444018E-10	7.213531E+12	1760.000000	7.148709E+12
57.400000	1789.000000	67.923000	2.444018E-10	7.319913E+12	1773.333333	7.200433E+12
57.600000	1722.000000	67.923000	2.445084E-10	7.042703E+12	1731.833333	7.036470E+12
57.800000	1692.000000	67.920000	2.441176E-10	6.931086E+12	1736.833333	7.056868E+12
58.000000	1768.000000	67.920000	2.444018E-10	7.233989E+12	1763.833333	7.162373E+12
58.200000	1848.000000	67.920000	2.444338E-10	7.560329E+12	1777.666667	7.215633E+12
58.400000	1792.000000	67.917000	2.442846E-10	7.335706E+12	1760.166667	7.152264E+12
58.600000	1740.000000	67.917000	2.443521E-10	7.120872E+12	1726.833333	7.012633E+12
58.800000	1733.000000	67.917000	2.445191E-10	7.087381E+12	1716.166667	6.969470E+12
59.000000	1764.000000	67.914000	2.443805E-10	7.218252E+12	1770.333333	7.189053E+12
59.200000	1817.000000	67.914000	2.442739E-10	7.438371E+12	1773.500000	7.206824E+12
59.400000	1770.000000	67.912000	2.444267E-10	7.241435E+12	1769.000000	7.192041E+12
59.600000	1832.000000	67.912000	2.443521E-10	7.497378E+12	1781.333333	7.239923E+12
59.800000	1818.000000	67.909000	2.443912E-10	7.438893E+12	1797.000000	7.300409E+12
60.000000	1805.000000	67.909000	2.443556E-10	7.386776E+12	1774.666667	7.213224E+12
60.200000	1847.000000	67.906000	2.442846E-10	7.560853E+12	1837.500000	7.472118E+12
60.400000	1819.000000	67.906000	2.444551E-10	7.441039E+12	1828.666667	7.431502E+12
60.600000	1887.000000	67.906000	2.444018E-10	7.720892E+12	1839.333333	7.474634E+12
60.800000	1800.000000	67.904000	2.443556E-10	7.366314E+12	1820.500000	7.396480E+12
61.000000	1911.000000	67.904000	2.445333E-10	7.814887E+12	1878.666667	7.634705E+12
61.200000	1868.000000	67.901000	2.443343E-10	7.645263E+12	1888.333333	7.674120E+12
61.400000	1840.000000	67.901000	2.443414E-10	7.530447E+12	1889.500000	7.675966E+12
61.600000	1906.000000	67.898000	2.444835E-10	7.796027E+12	1942.500000	7.890432E+12
61.800000	2019.000000	67.898000	2.444374E-10	8.259783E+12	1974.333333	8.020069E+12
62.000000	1975.000000	67.895000	2.441638E-10	8.088832E+12	1941.166667	7.888126E+12
62.200000	2025.000000	67.895000	2.444054E-10	8.285414E+12	1977.833333	8.034696E+12
62.400000	1946.000000	67.892000	2.442881E-10	7.966004E+12	1979.666667	8.040200E+12
62.600000	1959.000000	67.892000	2.441922E-10	8.022369E+12	1964.500000	7.979769E+12
62.800000	1946.000000	67.892000	2.441993E-10	7.968901E+12	1930.833333	7.848191E+12
63.000000	1921.000000	67.889000	2.442988E-10	7.863321E+12	1909.500000	7.757887E+12
63.200000	1950.000000	67.889000	2.445013E-10	7.975418E+12	1896.666667	7.709267E+12
63.400000	1876.000000	67.886000	2.442100E-10	7.681913E+12	1872.666667	7.607404E+12
63.600000	1818.000000	67.886000	2.442420E-10	7.443437E+12	1828.500000	7.430903E+12
63.800000	1828.000000	67.884000	2.442384E-10	7.484491E+12	1770.500000	7.195975E+12
64.000000	1804.000000	67.884000	2.441993E-10	7.387409E+12	1752.833333	7.124358E+12
64.200000	1752.000000	67.881000	2.442206E-10	7.173842E+12	1706.500000	6.938767E+12
64.400000	1684.000000	67.881000	2.442953E-10	6.893297E+12	1655.166667	6.728169E+12
64.600000	1693.000000	67.878000	2.442597E-10	6.931147E+12	1645.500000	6.693756E+12
64.800000	1594.000000	67.878000	2.441851E-10	6.527835E+12	1582.000000	6.430963E+12
65.000000	1525.000000	67.878000	2.442349E-10	6.243989E+12	1567.500000	6.372356E+12
65.200000	1566.000000	67.876000	2.442881E-10	6.410464E+12	1540.000000	6.259105E+12
65.400000	1532.000000	67.876000	2.442739E-10	6.271648E+12	1517.666667	6.170675E+12
65.600000	1510.000000	67.873000	2.442313E-10	6.182664E+12	1493.333333	6.072274E+12
65.800000	1486.000000	67.873000	2.442633E-10	6.083599E+12	1482.666667	6.024052E+12
66.000000	1513.000000	67.870000	2.441993E-10	6.195759E+12	1489.166667	6.053567E+12
66.200000	1503.000000	67.870000	2.442562E-10	6.153375E+12	1449.666667	5.891494E+12
66.400000	1525.000000	67.867000	2.441816E-10	6.245352E+12	1459.166667	5.934697E+12
66.600000	1497.000000	67.867000	2.442313E-10	6.129435E+12	1444.333333	5.870451E+12
66.800000	1457.000000	67.867000	2.442420E-10	5.965395E+12	1436.500000	5.841785E+12
67.000000	1477.000000	67.864000	2.441034E-10	6.050715E+12	1473.166667	5.989062E+12
67.200000	1481.000000	67.864000	2.444196E-10	6.059252E+12	1458.833333	5.929980E+12
67.400000	1445.000000	67.862000	2.443521E-10	5.913598E+12	1446.833333	5.880119E+12
67.600000	1474.000000	67.862000	2.444800E-10	6.029123E+12	1456.833333	5.925079E+12
67.800000	1374.000000	67.859000	2.443166E-10	5.623850E+12	1428.000000	5.804946E+12
68.000000	1484.000000	67.859000	2.444693E-10	6.070292E+12	1421.333333	5.777031E+12
68.200000	1385.000000	67.857000	2.444374E-10	5.666072E+12	1404.000000	5.707389E+12
68.400000	1476.000000	67.857000	2.443841E-10	6.039673E+12	1443.333333	5.872134E+12
68.600000	1395.000000	67.854000	2.442917E-10	5.710386E+12	1396.833333	5.678917E+12
68.800000	1401.000000	67.854000	2.442846E-10	5.735114E+12	1424.833333	5.795385E+12
69.000000	1443.000000	67.854000	2.444658E-10	5.902666E+12	1416.666667	5.763231E+12
69.200000	1440.000000	67.852000	2.443272E-10	5.893736E+12	1387.666667	5.644247E+12
69.400000	1429.000000	67.852000	2.443272E-10	5.848714E+12	1420.000000	5.773153E+12
69.600000	1397.000000	67.848000	2.444587E-10	5.714667E+12	1415.666667	5.757529E+12
69.800000	1402.000000	67.848000	2.444160E-10	5.736122E+12	1387.000000	5.640157E+12
70.000000	1425.000000	67.845000	2.444018E-10	5.830563E+12	1415.666667	5.759199E+12
70.200000	1426.000000	67.845000	2.445120E-10	5.832025E+12	1395.333333	5.671428E+12
70.400000	1417.000000	67.842000	2.444658E-10	5.796312E+12	1419.000000	5.774678E+12
70.600000	1356.000000	67.842000	2.443983E-10	5.548320E+12	1374.833333	5.589475E+12
70.800000	1451.000000	67.839000	2.444835E-10	5.934961E+12	1413.166667	5.749038E+12
71.000000	1378.000000	67.839000	2.444516E-10	5.637108E+12	1399.833333	5.690662E+12
71.200000	1437.000000	67.839000	2.446185E-10	5.874453E+12	1380.500000	5.616096E+12
71.400000	1342.000000	67.837000	2.445262E-10	5.488164E+12	1370.833333	5.578710E+12
71.600000	1439.000000	67.837000	2.444906E-10	5.885707E+12	1376.333333	5.600430E+12
71.800000	1393.000000	67.834000	2.443734E-10	5.700293E+12	1357.000000	5.521445E+12
72.000000	1401.000000	67.834000	2.445226E-10	5.729532E+12	1394.833333	5.675267E+12
72.200000	1407.000000	67.831000	2.443521E-10	5.758084E+12	1393.500000	5.670586E+12
72.400000	1402.000000	67.831000	2.440963E-10	5.743635E+12	1358.500000	5.531226E+12
72.600000	1297.000000	67.828000	2.440999E-10	5.313398E+12	1353.666667	5.508080E+12
72.800000	1431.000000	67.828000	2.441070E-10	5.862183E+12	1377.333333	5.605751E+12
73.000000	1373.000000	67.828000	2.440146E-10	5.626712E+12	1366.000000	5.556677E+12
73.200000	1422.000000	67.825000	2.443130E-10	5.820403E+12	1391.500000	5.665725E+12
73.400000	1428.000000	67.825000	2.440181E-10	5.852025E+12	1368.666667	5.572581E+12
73.600000	1389.000000	67.822000	2.442206E-10	5.687481E+12	1362.000000	5.544673E+12
73.800000	1350.000000	67.822000	2.444089E-10	5.523530E+12	1355.333333	5.515355E+12
74.000000	1294.000000	67.819000	2.443343E-10	5.296023E+12	1370.000000	5.576283E+12
74.200000	1294.000000	67.819000	2.441922E-10	5.299105E+12	1368.000000	5.564663E+12
74.400000	1355.000000	67.816000	2.441283E-10	5.550360E+12	1336.666667	5.440163E+12
74.600000	1357.000000	67.816000	2.442953E-10	5.554753E+12	1358.333333	5.530617E+12
74.800000	1472.000000	67.816000	2.441993E-10	6.027863E+12	1362.500000	5.544169E+12
75.000000	1334.000000	67.813000	2.439435E-10	5.468479E+12	1350.333333	5.495444E+12

Scan : 	7

50.000000	2103.000000	67.805000	2.440608E-10	8.616705E+12	2049.000000	8.324599E+12
50.200000	2068.000000	67.805000	2.441531E-10	8.470095E+12	2014.285714	8.181713E+12
50.400000	2046.000000	67.802000	2.442384E-10	8.377061E+12	2015.428571	8.189450E+12
50.600000	2036.000000	67.802000	2.441993E-10	8.337452E+12	2002.857143	8.139275E+12
50.800000	1950.000000	67.802000	2.444089E-10	7.978433E+12	1986.428571	8.069560E+12
51.000000	1947.000000	67.799000	2.441887E-10	7.973342E+12	1993.571429	8.102540E+12
51.200000	1958.000000	67.799000	2.443628E-10	8.012676E+12	1966.714286	7.988772E+12
51.400000	1923.000000	67.796000	2.442384E-10	7.873455E+12	1934.714286	7.858313E+12
51.600000	1964.000000	67.796000	2.440537E-10	8.047409E+12	1951.428571	7.932834E+12
51.800000	1964.000000	67.793000	2.439826E-10	8.049754E+12	1936.428571	7.877329E+12
52.000000	1940.000000	67.793000	2.439364E-10	7.952893E+12	1970.142857	8.008375E+12
52.200000	1953.000000	67.791000	2.440572E-10	8.002222E+12	1910.571429	7.765621E+12
52.400000	2059.000000	67.791000	2.443095E-10	8.427834E+12	1957.428571	7.957674E+12
52.600000	1963.000000	67.788000	2.441389E-10	8.040505E+12	1937.428571	7.870907E+12
52.800000	1951.000000	67.788000	2.440927E-10	7.992865E+12	1904.428571	7.749543E+12
53.000000	1835.000000	67.788000	2.443912E-10	7.508454E+12	1905.000000	7.747151E+12
53.200000	1981.000000	67.785000	2.443699E-10	8.106563E+12	1921.285714	7.807418E+12
53.400000	1915.000000	67.785000	2.443556E-10	7.836939E+12	1882.285714	7.643738E+12
53.600000	1858.000000	67.782000	2.441567E-10	7.609867E+12	1894.000000	7.697877E+12
53.800000	1911.000000	67.782000	2.438085E-10	7.838119E+12	1883.428571	7.658832E+12
54.000000	1934.000000	67.780000	2.438156E-10	7.932224E+12	1889.571429	7.680666E+12
54.200000	1810.000000	67.780000	2.434071E-10	7.436102E+12	1845.428571	7.500106E+12
54.400000	1852.000000	67.777000	2.445404E-10	7.573391E+12	1866.000000	7.580215E+12
54.600000	1876.000000	67.777000	2.441816E-10	7.682807E+12	1875.714286	7.620919E+12
54.800000	1845.000000	67.774000	2.437801E-10	7.568296E+12	1855.428571	7.544257E+12
55.000000	1891.000000	67.774000	2.436451E-10	7.761289E+12	1832.714286	7.457091E+12
55.200000	1814.000000	67.774000	2.437019E-10	7.443520E+12	1824.142857	7.425093E+12
55.400000	1839.000000	67.772000	2.437552E-10	7.544454E+12	1847.142857	7.507280E+12
55.600000	1872.000000	67.772000	2.437339E-10	7.680507E+12	1813.142857	7.372293E+12
55.800000	1811.000000	67.769000	2.438192E-10	7.427635E+12	1832.571429	7.456084E+12
56.000000	1884.000000	67.769000	2.444267E-10	7.707832E+12	1824.571429	7.420889E+12
56.200000	1874.000000	67.766000	2.441780E-10	7.674729E+12	1825.428571	7.422469E+12
56.400000	1831.000000	67.766000	2.446399E-10	7.484470E+12	1818.428571	7.392260E+12
56.600000	1797.000000	67.764000	2.433822E-10	7.383449E+12	1781.571429	7.243661E+12
56.800000	1790.000000	67.764000	2.439506E-10	7.337551E+12	1788.428571	7.273551E+12
57.000000	1790.000000	67.761000	2.439116E-10	7.338724E+12	1791.000000	7.281276E+12
57.200000	1793.000000	67.761000	2.439293E-10	7.350490E+12	1764.714286	7.177535E+12
57.400000	1836.000000	67.761000	2.442349E-10	7.517353E+12	1782.285714	7.245707E+12
57.600000	1804.000000	67.761000	2.442100E-10	7.387085E+12	1742.142857	7.086558E+12
57.800000	1791.000000	67.758000	2.438192E-10	7.345607E+12	1744.571429	7.098116E+12
58.000000	1777.000000	67.758000	2.435243E-10	7.297013E+12	1765.714286	7.181608E+12
58.200000	1789.000000	67.755000	2.435812E-10	7.344573E+12	1779.285714	7.234053E+12
58.400000	1803.000000	67.755000	2.443414E-10	7.379020E+12	1766.285714	7.184658E+12
58.600000	1816.000000	67.752000	2.438902E-10	7.445974E+12	1739.571429	7.074539E+12
58.800000	1858.000000	67.752000	2.437979E-10	7.621066E+12	1736.428571	7.062556E+12
59.000000	1849.000000	67.749000	2.439151E-10	7.580506E+12	1781.571429	7.244975E+12
59.200000	1787.000000	67.749000	2.439577E-10	7.325040E+12	1775.428571	7.223712E+12
59.400000	1831.000000	67.749000	2.437730E-10	7.511086E+12	1777.857143	7.237619E+12
59.600000	1787.000000	67.746000	2.439045E-10	7.326638E+12	1782.142857	7.252311E+12
59.800000	1902.000000	67.746000	2.438227E-10	7.800750E+12	1812.000000	7.371887E+12
60.000000	1796.000000	67.743000	2.437801E-10	7.367295E+12	1777.714286	7.235234E+12
60.200000	1801.000000	67.743000	2.437233E-10	7.389527E+12	1832.285714	7.460319E+12
60.400000	1866.000000	67.740000	2.439435E-10	7.649312E+12	1834.000000	7.462618E+12
60.600000	1821.000000	67.740000	2.439187E-10	7.465602E+12	1836.714286	7.473343E+12
60.800000	1913.000000	67.738000	2.436806E-10	7.850440E+12	1833.714286	7.461332E+12
61.000000	1974.000000	67.738000	2.439791E-10	8.090857E+12	1892.285714	7.699869E+12
61.200000	1966.000000	67.735000	2.439116E-10	8.060297E+12	1899.428571	7.729289E+12
61.400000	1890.000000	67.735000	2.437979E-10	7.752323E+12	1889.571429	7.686874E+12
61.600000	1987.000000	67.735000	2.438973E-10	8.146872E+12	1948.857143	7.927067E+12
61.800000	1936.000000	67.732000	2.438014E-10	7.940890E+12	1968.857143	8.008758E+12
62.000000	1921.000000	67.732000	2.438725E-10	7.877067E+12	1938.285714	7.886546E+12
62.200000	1935.000000	67.729000	2.439222E-10	7.932857E+12	1971.714286	8.020148E+12
62.400000	1976.000000	67.729000	2.438263E-10	8.104130E+12	1979.142857	8.049333E+12
62.600000	1998.000000	67.726000	2.437801E-10	8.195911E+12	1969.285714	8.010647E+12
62.800000	1887.000000	67.726000	2.436131E-10	7.745889E+12	1924.571429	7.833577E+12
63.000000	1953.000000	67.723000	2.437162E-10	8.013419E+12	1915.714286	7.794392E+12
63.200000	1879.000000	67.723000	2.437979E-10	7.707203E+12	1894.142857	7.708972E+12
63.400000	1861.000000	67.720000	2.438192E-10	7.632705E+12	1871.000000	7.611018E+12
63.600000	1792.000000	67.720000	2.438370E-10	7.349172E+12	1823.285714	7.419227E+12
63.800000	1778.000000	67.720000	2.435918E-10	7.299096E+12	1771.571429	7.210707E+12
64.000000	1755.000000	67.718000	2.438370E-10	7.197431E+12	1753.142857	7.134797E+12
64.200000	1708.000000	67.718000	2.436202E-10	7.010913E+12	1706.714286	6.949073E+12
64.400000	1671.000000	67.718000	2.437659E-10	6.854937E+12	1657.428571	6.746279E+12
64.600000	1637.000000	67.715000	2.437872E-10	6.714873E+12	1644.285714	6.696773E+12
64.800000	1571.000000	67.713000	2.437979E-10	6.443862E+12	1580.428571	6.432806E+12
65.000000	1628.000000	67.713000	2.438298E-10	6.676788E+12	1576.142857	6.415846E+12
65.200000	1617.000000	67.710000	2.437517E-10	6.633800E+12	1551.000000	6.312633E+12
65.400000	1508.000000	67.710000	2.436700E-10	6.188698E+12	1516.285714	6.173249E+12
65.600000	1506.000000	67.707000	2.437410E-10	6.178690E+12	1495.142857	6.087477E+12
65.800000	1484.000000	67.707000	2.435918E-10	6.092159E+12	1482.857143	6.033782E+12
66.000000	1452.000000	67.707000	2.437375E-10	5.957229E+12	1483.857143	6.039804E+12
66.200000	1560.000000	67.704000	2.437410E-10	6.400236E+12	1465.428571	5.964172E+12
66.400000	1482.000000	67.704000	2.437019E-10	6.081200E+12	1462.428571	5.955626E+12
66.600000	1402.000000	67.701000	2.436344E-10	5.754524E+12	1438.285714	5.853890E+12
66.800000	1478.000000	67.701000	2.437837E-10	6.062752E+12	1442.428571	5.873352E+12
67.000000	1479.000000	67.698000	2.435812E-10	6.071897E+12	1474.000000	6.000895E+12
67.200000	1544.000000	67.698000	2.436273E-10	6.337549E+12	1471.000000	5.988204E+12
67.400000	1425.000000	67.696000	2.437588E-10	5.845943E+12	1443.714286	5.875237E+12
67.600000	1425.000000	67.696000	2.437410E-10	5.846370E+12	1452.285714	5.913835E+12
67.800000	1388.000000	67.696000	2.437162E-10	5.695149E+12	1422.285714	5.789261E+12
68.000000	1426.000000	67.694000	2.434284E-10	5.857985E+12	1422.000000	5.788596E+12
68.200000	1413.000000	67.694000	2.436487E-10	5.799333E+12	1405.285714	5.720524E+12
68.400000	1369.000000	67.692000	2.439435E-10	5.611955E+12	1432.714286	5.834966E+12
68.600000	1437.000000	67.692000	2.437233E-10	5.896030E+12	1402.571429	5.709933E+12
68.800000	1476.000000	67.689000	2.439293E-10	6.050934E+12	1432.142857	5.831892E+12
69.000000	1414.000000	67.689000	2.437979E-10	5.799886E+12	1416.285714	5.768467E+12
69.200000	1436.000000	67.686000	2.437410E-10	5.891500E+12	1394.571429	5.679569E+12
69.400000	1463.000000	67.686000	2.437233E-10	6.002709E+12	1426.142857	5.805947E+12
69.600000	1387.000000	67.683000	2.437339E-10	5.690632E+12	1411.571429	5.747972E+12
69.800000	1435.000000	67.683000	2.436877E-10	5.888685E+12	1393.857143	5.675661E+12
70.000000	1416.000000	67.683000	2.436806E-10	5.810885E+12	1415.714286	5.766583E+12
70.200000	1490.000000	67.680000	2.436984E-10	6.114115E+12	1408.857143	5.734669E+12
70.400000	1448.000000	67.680000	2.436131E-10	5.943851E+12	1423.142857	5.798846E+12
70.600000	1432.000000	67.677000	2.435527E-10	5.879631E+12	1383.000000	5.630925E+12
70.800000	1407.000000	67.677000	2.432472E-10	5.784239E+12	1412.285714	5.754067E+12
71.000000	1343.000000	67.674000	2.432365E-10	5.521375E+12	1391.714286	5.666478E+12
71.200000	1377.000000	67.674000	2.434000E-10	5.657354E+12	1380.000000	5.621990E+12
71.400000	1331.000000	67.671000	2.432614E-10	5.471480E+12	1365.142857	5.563391E+12
71.600000	1356.000000	67.671000	2.433254E-10	5.572784E+12	1373.428571	5.596481E+12
71.800000	1424.000000	67.669000	2.431548E-10	5.856352E+12	1366.571429	5.569289E+12
72.000000	1327.000000	67.669000	2.431122E-10	5.458385E+12	1385.142857	5.644284E+12
72.200000	1392.000000	67.669000	2.432010E-10	5.723661E+12	1393.285714	5.678168E+12
72.400000	1339.000000	67.666000	2.432259E-10	5.505170E+12	1355.714286	5.527504E+12
72.600000	1376.000000	67.666000	2.431229E-10	5.659689E+12	1356.857143	5.529738E+12
72.800000	1322.000000	67.663000	2.432294E-10	5.435198E+12	1369.428571	5.581386E+12
73.000000	1482.000000	67.663000	2.432685E-10	6.092034E+12	1382.571429	5.633156E+12
73.200000	1390.000000	67.661000	2.431939E-10	5.715604E+12	1391.285714	5.672850E+12
73.400000	1411.000000	67.661000	2.431761E-10	5.802379E+12	1374.714286	5.605409E+12
73.600000	1378.000000	67.658000	2.433325E-10	5.663033E+12	1364.285714	5.561582E+12
73.800000	1341.000000	67.658000	2.432365E-10	5.513153E+12	1353.285714	5.515041E+12
74.000000	1366.000000	67.658000	2.435385E-10	5.608969E+12	1369.428571	5.580953E+12
74.200000	1363.000000	67.656000	2.434319E-10	5.599102E+12	1367.285714	5.569583E+12
74.400000	1368.000000	67.656000	2.432294E-10	5.624320E+12	1341.142857	5.466471E+12
74.600000	1359.000000	67.654000	2.432685E-10	5.586420E+12	1358.428571	5.538588E+12
74.800000	1343.000000	67.654000	2.431371E-10	5.523633E+12	1359.714286	5.541235E+12
75.000000	1354.000000	67.651000	2.431371E-10	5.568875E+12	1350.857143	5.505934E+12

Scan : 	8

50.000000	1990.000000	67.645000	2.430873E-10	8.186359E+12	2041.625000	8.307319E+12
50.200000	2025.000000	67.642000	2.430447E-10	8.331801E+12	2015.625000	8.200474E+12
50.400000	2054.000000	67.642000	2.430909E-10	8.449514E+12	2020.250000	8.221958E+12
50.600000	2015.000000	67.638000	2.431904E-10	8.285689E+12	2004.375000	8.157577E+12
50.800000	2011.000000	67.638000	2.432898E-10	8.265862E+12	1989.500000	8.094097E+12
51.000000	1966.000000	67.635000	2.432472E-10	8.082313E+12	1990.125000	8.100011E+12
51.200000	1960.000000	67.635000	2.433538E-10	8.054117E+12	1965.875000	7.996940E+12
51.400000	1917.000000	67.632000	2.434213E-10	7.875235E+12	1932.500000	7.860428E+12
51.600000	1995.000000	67.632000	2.435634E-10	8.190886E+12	1956.875000	7.965091E+12
51.800000	2034.000000	67.632000	2.432152E-10	8.362964E+12	1948.625000	7.938033E+12
52.000000	1923.000000	67.630000	2.434284E-10	7.899653E+12	1964.250000	7.994785E+12
52.200000	1967.000000	67.630000	2.434781E-10	8.078755E+12	1917.625000	7.804763E+12
52.400000	1949.000000	67.627000	2.432223E-10	8.013245E+12	1956.375000	7.964621E+12
52.600000	1957.000000	67.627000	2.432330E-10	8.045783E+12	1939.875000	7.892767E+12
52.800000	1909.000000	67.624000	2.434319E-10	7.842029E+12	1905.000000	7.761104E+12
53.000000	1912.000000	67.624000	2.434355E-10	7.854237E+12	1905.875000	7.760537E+12
53.200000	1875.000000	67.621000	2.430625E-10	7.714065E+12	1915.500000	7.795749E+12
53.400000	1873.000000	67.621000	2.433502E-10	7.696727E+12	1881.125000	7.650362E+12
53.600000	1874.000000	67.619000	2.433538E-10	7.700722E+12	1891.500000	7.698232E+12
53.800000	1890.000000	67.619000	2.432543E-10	7.769647E+12	1884.250000	7.672684E+12
54.000000	1887.000000	67.616000	2.432543E-10	7.757314E+12	1889.250000	7.690247E+12
54.200000	1904.000000	67.616000	2.434319E-10	7.821489E+12	1852.750000	7.540279E+12
54.400000	1885.000000	67.616000	2.432259E-10	7.749997E+12	1868.375000	7.601438E+12
54.600000	1929.000000	67.614000	2.432543E-10	7.929973E+12	1882.375000	7.659551E+12
54.800000	1854.000000	67.614000	2.434568E-10	7.615314E+12	1855.250000	7.553139E+12
55.000000	1811.000000	67.611000	2.431193E-10	7.449018E+12	1830.000000	7.456082E+12
55.200000	1840.000000	67.611000	2.431442E-10	7.567526E+12	1826.125000	7.442897E+12
55.400000	1901.000000	67.608000	2.434106E-10	7.809849E+12	1853.875000	7.545101E+12
55.600000	1851.000000	67.608000	2.432969E-10	7.607988E+12	1817.875000	7.401755E+12
55.800000	1837.000000	67.606000	2.430838E-10	7.557065E+12	1833.125000	7.468707E+12
56.000000	1896.000000	67.606000	2.432792E-10	7.793515E+12	1833.500000	7.467467E+12
56.200000	1773.000000	67.606000	2.434213E-10	7.283668E+12	1818.875000	7.405119E+12
56.400000	1840.000000	67.603000	2.432152E-10	7.565317E+12	1821.125000	7.413892E+12
56.600000	1787.000000	67.603000	2.435065E-10	7.338613E+12	1782.250000	7.255530E+12
56.800000	1776.000000	67.600000	2.436060E-10	7.290461E+12	1786.875000	7.275665E+12
57.000000	1772.000000	67.600000	2.436309E-10	7.273297E+12	1788.625000	7.280279E+12
57.200000	1756.000000	67.600000	2.433111E-10	7.217098E+12	1763.625000	7.182480E+12
57.400000	1777.000000	67.596000	2.434213E-10	7.300101E+12	1781.625000	7.252507E+12
57.600000	1833.000000	67.596000	2.433893E-10	7.531145E+12	1753.500000	7.142132E+12
57.800000	1792.000000	67.593000	2.433751E-10	7.363120E+12	1750.500000	7.131242E+12
58.000000	1787.000000	67.593000	2.433076E-10	7.344612E+12	1768.375000	7.201983E+12
58.200000	1837.000000	67.590000	2.433325E-10	7.549341E+12	1786.500000	7.273464E+12
58.400000	1829.000000	67.590000	2.431655E-10	7.521626E+12	1774.125000	7.226779E+12
58.600000	1756.000000	67.588000	2.434994E-10	7.211517E+12	1741.625000	7.091661E+12
58.800000	1832.000000	67.588000	2.433573E-10	7.528026E+12	1748.375000	7.120739E+12
59.000000	1765.000000	67.588000	2.431761E-10	7.258115E+12	1779.500000	7.246618E+12
59.200000	1756.000000	67.585000	2.433040E-10	7.217308E+12	1773.000000	7.222912E+12
59.400000	1785.000000	67.585000	2.432117E-10	7.339285E+12	1778.750000	7.250327E+12
59.600000	1769.000000	67.582000	2.429559E-10	7.281157E+12	1780.500000	7.255916E+12
59.800000	1764.000000	67.582000	2.432614E-10	7.251459E+12	1806.000000	7.356833E+12
60.000000	1839.000000	67.581000	2.431264E-10	7.563967E+12	1785.375000	7.276326E+12
60.200000	1861.000000	67.581000	2.430518E-10	7.656804E+12	1835.875000	7.484880E+12
60.400000	1867.000000	67.578000	2.430731E-10	7.680817E+12	1838.125000	7.489893E+12
60.600000	1840.000000	67.578000	2.430731E-10	7.569739E+12	1837.125000	7.485393E+12
60.800000	1870.000000	67.578000	2.429346E-10	7.697545E+12	1838.250000	7.490858E+12
61.000000	1928.000000	67.576000	2.430554E-10	7.932348E+12	1896.750000	7.728929E+12
61.200000	1911.000000	67.576000	2.430411E-10	7.862868E+12	1900.875000	7.745986E+12
61.400000	1974.000000	67.573000	2.430838E-10	8.120656E+12	1900.125000	7.741097E+12
61.600000	1980.000000	67.573000	2.429168E-10	8.150939E+12	1952.750000	7.955051E+12
61.800000	1936.000000	67.570000	2.436273E-10	7.946564E+12	1964.750000	8.000984E+12
62.000000	1867.000000	67.570000	2.421316E-10	7.710683E+12	1929.375000	7.864563E+12
62.200000	1976.000000	67.567000	2.428848E-10	8.135544E+12	1972.250000	8.034572E+12
62.400000	2006.000000	67.567000	2.428138E-10	8.261474E+12	1982.500000	8.075851E+12
62.600000	2010.000000	67.567000	2.437659E-10	8.245616E+12	1974.375000	8.040018E+12
62.800000	1992.000000	67.564000	2.432614E-10	8.188722E+12	1933.000000	7.877970E+12
63.000000	1909.000000	67.564000	2.432259E-10	7.848671E+12	1914.875000	7.801177E+12
63.200000	1985.000000	67.561000	2.435918E-10	8.148879E+12	1905.500000	7.763961E+12
63.400000	1955.000000	67.561000	2.430838E-10	8.042494E+12	1881.500000	7.664953E+12
63.600000	1831.000000	67.558000	2.425082E-10	7.550260E+12	1824.250000	7.435606E+12
63.800000	1811.000000	67.558000	2.442171E-10	7.415533E+12	1776.500000	7.236310E+12
64.000000	1787.000000	67.555000	2.432117E-10	7.347508E+12	1757.375000	7.161386E+12
64.200000	1785.000000	67.555000	2.424301E-10	7.362947E+12	1716.500000	7.000807E+12
64.400000	1656.000000	67.553000	2.430482E-10	6.813463E+12	1657.250000	6.754677E+12
64.600000	1634.000000	67.553000	2.427996E-10	6.729830E+12	1643.000000	6.700905E+12
64.800000	1559.000000	67.553000	2.428457E-10	6.419714E+12	1577.750000	6.431169E+12
65.000000	1632.000000	67.550000	2.427711E-10	6.722382E+12	1583.125000	6.454163E+12
65.200000	1508.000000	67.550000	2.432969E-10	6.198188E+12	1545.625000	6.298327E+12
65.400000	1495.000000	67.547000	2.433858E-10	6.142511E+12	1513.625000	6.169407E+12
65.600000	1450.000000	67.547000	2.425438E-10	5.978302E+12	1489.500000	6.073830E+12
65.800000	1484.000000	67.544000	2.428848E-10	6.109892E+12	1483.000000	6.043295E+12
66.000000	1570.000000	67.544000	2.428600E-10	6.464630E+12	1494.625000	6.092907E+12
66.200000	1480.000000	67.541000	2.429772E-10	6.091106E+12	1467.250000	5.980039E+12
66.400000	1529.000000	67.541000	2.433893E-10	6.282117E+12	1470.750000	5.996438E+12
66.600000	1484.000000	67.538000	2.432579E-10	6.100521E+12	1444.000000	5.884719E+12
66.800000	1523.000000	67.538000	2.431442E-10	6.263773E+12	1452.500000	5.922154E+12
67.000000	1497.000000	67.536000	2.432898E-10	6.153156E+12	1476.875000	6.019928E+12
67.200000	1419.000000	67.536000	2.429275E-10	5.841249E+12	1464.500000	5.969835E+12
67.400000	1458.000000	67.536000	2.425651E-10	6.010758E+12	1445.500000	5.892177E+12
67.600000	1460.000000	67.533000	2.425971E-10	6.018209E+12	1453.250000	5.926882E+12
67.800000	1482.000000	67.533000	2.431833E-10	6.094168E+12	1429.750000	5.827374E+12
68.000000	1431.000000	67.530000	2.428919E-10	5.891510E+12	1423.125000	5.801460E+12
68.200000	1451.000000	67.530000	2.426006E-10	5.981024E+12	1411.000000	5.753087E+12
68.400000	1452.000000	67.527000	2.429772E-10	5.975869E+12	1435.125000	5.852579E+12
68.600000	1450.000000	67.527000	2.430625E-10	5.965544E+12	1408.500000	5.741884E+12
68.800000	1426.000000	67.525000	2.428706E-10	5.871439E+12	1431.375000	5.836836E+12
69.000000	1501.000000	67.525000	2.429488E-10	6.178256E+12	1426.875000	5.819691E+12
69.200000	1476.000000	67.525000	2.435527E-10	6.060290E+12	1404.750000	5.727159E+12
69.400000	1429.000000	67.522000	2.422098E-10	5.899844E+12	1426.500000	5.817684E+12
69.600000	1413.000000	67.522000	2.425686E-10	5.825156E+12	1411.750000	5.757620E+12
69.800000	1429.000000	67.520000	2.428671E-10	5.883876E+12	1398.250000	5.701688E+12
70.000000	1383.000000	67.520000	2.427463E-10	5.697306E+12	1411.625000	5.757923E+12
70.200000	1398.000000	67.517000	2.428138E-10	5.757498E+12	1407.500000	5.737523E+12
70.400000	1480.000000	67.517000	2.432792E-10	6.083545E+12	1430.250000	5.834433E+12
70.600000	1404.000000	67.515000	2.432365E-10	5.772160E+12	1385.625000	5.648580E+12
70.800000	1474.000000	67.515000	2.430198E-10	6.065349E+12	1420.000000	5.792977E+12
71.000000	1377.000000	67.513000	2.431939E-10	5.662149E+12	1389.875000	5.665937E+12
71.200000	1438.000000	67.513000	2.432259E-10	5.912199E+12	1387.250000	5.658266E+12
71.400000	1356.000000	67.513000	2.431086E-10	5.577754E+12	1364.000000	5.565187E+12
71.600000	1397.000000	67.510000	2.430625E-10	5.747493E+12	1376.375000	5.615357E+12
71.800000	1371.000000	67.510000	2.430980E-10	5.639701E+12	1367.125000	5.578090E+12
72.000000	1414.000000	67.508000	2.432259E-10	5.813526E+12	1388.750000	5.665439E+12
72.200000	1370.000000	67.508000	2.431619E-10	5.634106E+12	1390.375000	5.672661E+12
72.400000	1411.000000	67.505000	2.433858E-10	5.797380E+12	1362.625000	5.561238E+12
72.600000	1375.000000	67.505000	2.433111E-10	5.651201E+12	1359.125000	5.544921E+12
72.800000	1377.000000	67.503000	2.425971E-10	5.676078E+12	1370.375000	5.593223E+12
73.000000	1439.000000	67.503000	2.428777E-10	5.924793E+12	1389.625000	5.669611E+12
73.200000	1416.000000	67.503000	2.428813E-10	5.830008E+12	1394.375000	5.692495E+12
73.400000	1339.000000	67.500000	2.426432E-10	5.518391E+12	1370.250000	5.594532E+12
73.600000	1335.000000	67.500000	2.427569E-10	5.499329E+12	1360.625000	5.553800E+12
73.800000	1420.000000	67.497000	2.436700E-10	5.827554E+12	1361.625000	5.554105E+12
74.000000	1382.000000	67.497000	2.434639E-10	5.676406E+12	1371.000000	5.592885E+12
74.200000	1352.000000	67.494000	2.427107E-10	5.570418E+12	1365.375000	5.569687E+12
74.400000	1307.000000	67.494000	2.428564E-10	5.381781E+12	1336.875000	5.455885E+12
74.600000	1420.000000	67.491000	2.432827E-10	5.836831E+12	1366.125000	5.575869E+12
74.800000	1356.000000	67.491000	2.430411E-10	5.579303E+12	1359.250000	5.545994E+12
75.000000	1322.000000	67.488000	2.431513E-10	5.436944E+12	1347.250000	5.497310E+12

Scan : 	9

50.000000	1966.000000	67.483000	2.430731E-10	8.088102E+12	2033.222222	8.282962E+12
50.200000	2057.000000	67.480000	2.430411E-10	8.463589E+12	2020.222222	8.229709E+12
50.400000	1981.000000	67.480000	2.432294E-10	8.144575E+12	2015.888889	8.213360E+12
50.600000	1985.000000	67.476000	2.423945E-10	8.189130E+12	2002.222222	8.161083E+12
50.800000	1986.000000	67.476000	2.427640E-10	8.180785E+12	1989.111111	8.103729E+12
51.000000	1956.000000	67.473000	2.426006E-10	8.062635E+12	1986.333333	8.095858E+12
51.200000	1959.000000	67.473000	2.425224E-10	8.077604E+12	1965.111111	8.005903E+12
51.400000	1934.000000	67.473000	2.428386E-10	7.964137E+12	1932.666667	7.871952E+12
51.600000	2011.000000	67.470000	2.428173E-10	8.281947E+12	1962.888889	8.000297E+12
51.800000	1880.000000	67.470000	2.428031E-10	7.742899E+12	1941.000000	7.916352E+12
52.000000	1948.000000	67.468000	2.433538E-10	8.004806E+12	1962.444444	7.995898E+12
52.200000	1942.000000	67.468000	2.424194E-10	8.010910E+12	1920.333333	7.827668E+12
52.400000	2019.000000	67.465000	2.426290E-10	8.321347E+12	1963.333333	8.004257E+12
52.600000	1922.000000	67.465000	2.427036E-10	7.919124E+12	1937.888889	7.895695E+12
52.800000	1986.000000	67.463000	2.428564E-10	8.177672E+12	1914.000000	7.807389E+12
53.000000	1934.000000	67.463000	2.429736E-10	7.959712E+12	1909.000000	7.782668E+12
53.200000	1913.000000	67.460000	2.429665E-10	7.873513E+12	1915.222222	7.804389E+12
53.400000	1935.000000	67.460000	2.430554E-10	7.961148E+12	1887.111111	7.684893E+12
53.600000	1902.000000	67.460000	2.429346E-10	7.829268E+12	1892.666667	7.712792E+12
53.800000	1865.000000	67.458000	2.427534E-10	7.682694E+12	1882.111111	7.673796E+12
54.000000	1887.000000	67.458000	2.429594E-10	7.766730E+12	1889.000000	7.698745E+12
54.200000	1906.000000	67.456000	2.429879E-10	7.844012E+12	1858.666667	7.574027E+12
54.400000	1933.000000	67.456000	2.426326E-10	7.966778E+12	1875.555556	7.642031E+12
54.600000	1899.000000	67.453000	2.428919E-10	7.818293E+12	1884.222222	7.677189E+12
54.800000	1937.000000	67.453000	2.428493E-10	7.976140E+12	1864.333333	7.600139E+12
55.000000	1890.000000	67.450000	2.425686E-10	7.791610E+12	1836.666667	7.493363E+12
55.200000	1890.000000	67.450000	2.427569E-10	7.785567E+12	1833.222222	7.480972E+12
55.400000	1883.000000	67.446000	2.430731E-10	7.746641E+12	1857.111111	7.567494E+12
55.600000	1849.000000	67.446000	2.427782E-10	7.616005E+12	1821.333333	7.425561E+12
55.800000	1821.000000	67.446000	2.428422E-10	7.498697E+12	1831.777778	7.472039E+12
56.000000	1839.000000	67.443000	2.427818E-10	7.574703E+12	1834.111111	7.479382E+12
56.200000	1828.000000	67.443000	2.427676E-10	7.529835E+12	1819.888889	7.418976E+12
56.400000	1866.000000	67.443000	2.428280E-10	7.684452E+12	1826.111111	7.443955E+12
56.600000	1794.000000	67.440000	2.428173E-10	7.388271E+12	1783.555556	7.270279E+12
56.800000	1726.000000	67.440000	2.427427E-10	7.110409E+12	1780.111111	7.257303E+12
57.000000	1797.000000	67.437000	2.428457E-10	7.399760E+12	1789.555556	7.293554E+12
57.200000	1801.000000	67.437000	2.427818E-10	7.418184E+12	1767.777778	7.208669E+12
57.400000	1799.000000	67.434000	2.425971E-10	7.415587E+12	1783.555556	7.270627E+12
57.600000	1825.000000	67.434000	2.427392E-10	7.518357E+12	1761.444444	7.183934E+12
57.800000	1799.000000	67.434000	2.428351E-10	7.408319E+12	1755.888889	7.162028E+12
58.000000	1822.000000	67.431000	2.427285E-10	7.506329E+12	1774.333333	7.235799E+12
58.200000	1737.000000	67.431000	2.427072E-10	7.156772E+12	1781.000000	7.260498E+12
58.400000	1856.000000	67.429000	2.428102E-10	7.643830E+12	1783.222222	7.273118E+12
58.600000	1756.000000	67.429000	2.428031E-10	7.232198E+12	1743.222222	7.107276E+12
58.800000	1714.000000	67.426000	2.426219E-10	7.064490E+12	1744.555556	7.114489E+12
59.000000	1805.000000	67.426000	2.427676E-10	7.435094E+12	1782.333333	7.267560E+12
59.200000	1820.000000	67.424000	2.427356E-10	7.497870E+12	1778.222222	7.253463E+12
59.400000	1720.000000	67.424000	2.427250E-10	7.086209E+12	1772.222222	7.232092E+12
59.600000	1841.000000	67.421000	2.428244E-10	7.581610E+12	1787.222222	7.292105E+12
59.800000	1816.000000	67.421000	2.428813E-10	7.476903E+12	1807.111111	7.370174E+12
60.000000	1847.000000	67.421000	2.426326E-10	7.612332E+12	1792.222222	7.313660E+12
60.200000	1875.000000	67.419000	2.427214E-10	7.724906E+12	1840.222222	7.511550E+12
60.400000	1891.000000	67.419000	2.428528E-10	7.786610E+12	1844.000000	7.522862E+12
60.600000	1816.000000	67.416000	2.425118E-10	7.488295E+12	1834.777778	7.485715E+12
60.800000	1852.000000	67.416000	2.425899E-10	7.634283E+12	1839.777778	7.506794E+12
61.000000	1957.000000	67.412000	2.427711E-10	8.061091E+12	1903.444444	7.765836E+12
61.200000	1952.000000	67.412000	2.425331E-10	8.048386E+12	1906.555556	7.779586E+12
61.400000	2001.000000	67.409000	2.426788E-10	8.245467E+12	1911.333333	7.797138E+12
61.600000	1881.000000	67.409000	2.428209E-10	7.746450E+12	1944.777778	7.931873E+12
61.800000	2064.000000	67.406000	2.425296E-10	8.510301E+12	1975.777778	8.057574E+12
62.000000	1952.000000	67.406000	2.427463E-10	8.041317E+12	1931.888889	7.884203E+12
62.200000	1992.000000	67.406000	2.428635E-10	8.202138E+12	1974.444444	8.053191E+12
62.400000	1971.000000	67.403000	2.423945E-10	8.131373E+12	1981.222222	8.082020E+12
62.600000	1994.000000	67.403000	2.426290E-10	8.218309E+12	1976.555556	8.059828E+12
62.800000	1977.000000	67.401000	2.427178E-10	8.145262E+12	1937.888889	7.907669E+12
63.000000	1945.000000	67.401000	2.424834E-10	8.021168E+12	1918.222222	7.825620E+12
63.200000	1959.000000	67.399000	2.428031E-10	8.068266E+12	1911.444444	7.797772E+12
63.400000	2012.000000	67.399000	2.428138E-10	8.286185E+12	1896.000000	7.733978E+12
63.600000	1776.000000	67.396000	2.425011E-10	7.323678E+12	1818.888889	7.423170E+12
63.800000	1829.000000	67.396000	2.426042E-10	7.539029E+12	1782.333333	7.269946E+12
64.000000	1697.000000	67.393000	2.427392E-10	6.991042E+12	1750.666667	7.142459E+12
64.200000	1724.000000	67.393000	2.426219E-10	7.105706E+12	1717.333333	7.012463E+12
64.400000	1766.000000	67.393000	2.426823E-10	7.277004E+12	1669.333333	6.812713E+12
64.600000	1691.000000	67.389000	2.427392E-10	6.966324E+12	1648.333333	6.730396E+12
64.800000	1556.000000	67.389000	2.426788E-10	6.411767E+12	1575.333333	6.429014E+12
65.000000	1624.000000	67.386000	2.425580E-10	6.695306E+12	1587.666667	6.480957E+12
65.200000	1505.000000	67.386000	2.424976E-10	6.206247E+12	1541.111111	6.288096E+12
65.400000	1545.000000	67.383000	2.423413E-10	6.375306E+12	1517.111111	6.192285E+12
65.600000	1512.000000	67.383000	2.426752E-10	6.230550E+12	1492.000000	6.091243E+12
65.800000	1457.000000	67.381000	2.427178E-10	6.002856E+12	1480.111111	6.038802E+12
66.000000	1486.000000	67.381000	2.427285E-10	6.122066E+12	1493.666667	6.096147E+12
66.200000	1525.000000	67.378000	2.426788E-10	6.284026E+12	1473.666667	6.013815E+12
66.400000	1470.000000	67.378000	2.428457E-10	6.053226E+12	1470.666667	6.002748E+12
66.600000	1421.000000	67.378000	2.427676E-10	5.853335E+12	1441.444444	5.881232E+12
66.800000	1499.000000	67.376000	2.427036E-10	6.176258E+12	1457.666667	5.950388E+12
67.000000	1497.000000	67.376000	2.428742E-10	6.163685E+12	1479.111111	6.035901E+12
67.200000	1496.000000	67.373000	2.424088E-10	6.171393E+12	1468.000000	5.992230E+12
67.400000	1403.000000	67.373000	2.423164E-10	5.789951E+12	1440.777778	5.880818E+12
67.600000	1451.000000	67.371000	2.425509E-10	5.982249E+12	1453.000000	5.933034E+12
67.800000	1477.000000	67.371000	2.424301E-10	6.092478E+12	1435.000000	5.856830E+12
68.000000	1465.000000	67.368000	2.424443E-10	6.042625E+12	1427.777778	5.828256E+12
68.200000	1450.000000	67.368000	2.426432E-10	5.975853E+12	1415.333333	5.777838E+12
68.400000	1492.000000	67.368000	2.424407E-10	6.154082E+12	1441.444444	5.886079E+12
68.600000	1404.000000	67.365000	2.424052E-10	5.791955E+12	1408.000000	5.747448E+12
68.800000	1458.000000	67.365000	2.425971E-10	6.009965E+12	1434.333333	5.856072E+12
69.000000	1434.000000	67.362000	2.424549E-10	5.914502E+12	1427.666667	5.830225E+12
69.200000	1479.000000	67.362000	2.423342E-10	6.103142E+12	1413.000000	5.768935E+12
69.400000	1491.000000	67.359000	2.426326E-10	6.145093E+12	1433.666667	5.854063E+12
69.600000	1477.000000	67.359000	2.425224E-10	6.090159E+12	1419.000000	5.794569E+12
69.800000	1386.000000	67.356000	2.425118E-10	5.715186E+12	1396.888889	5.703188E+12
70.000000	1469.000000	67.356000	2.425011E-10	6.057704E+12	1418.000000	5.791232E+12
70.200000	1383.000000	67.353000	2.425402E-10	5.702148E+12	1404.777778	5.733592E+12
70.400000	1379.000000	67.353000	2.424123E-10	5.688655E+12	1424.555556	5.818235E+12
70.600000	1430.000000	67.353000	2.426077E-10	5.894289E+12	1390.555556	5.675881E+12
70.800000	1487.000000	67.351000	2.423839E-10	6.134896E+12	1427.444444	5.830968E+12
71.000000	1402.000000	67.351000	2.423377E-10	5.785315E+12	1391.222222	5.679201E+12
71.200000	1500.000000	67.348000	2.425331E-10	6.184723E+12	1399.777778	5.716762E+12
71.400000	1342.000000	67.348000	2.424159E-10	5.535941E+12	1361.555556	5.561937E+12
71.600000	1412.000000	67.346000	2.421885E-10	5.830169E+12	1380.333333	5.639225E+12
71.800000	1415.000000	67.346000	2.425438E-10	5.833998E+12	1372.444444	5.606524E+12
72.000000	1418.000000	67.343000	2.422631E-10	5.853141E+12	1392.000000	5.686295E+12
72.200000	1411.000000	67.343000	2.421956E-10	5.825870E+12	1392.666667	5.689684E+12
72.400000	1429.000000	67.340000	2.422667E-10	5.898458E+12	1370.000000	5.598707E+12
72.600000	1424.000000	67.340000	2.424549E-10	5.873257E+12	1366.333333	5.581403E+12
72.800000	1414.000000	67.340000	2.423057E-10	5.835604E+12	1375.222222	5.620154E+12
73.000000	1387.000000	67.338000	2.423270E-10	5.723671E+12	1389.333333	5.675618E+12
73.200000	1362.000000	67.338000	2.424798E-10	5.616963E+12	1390.777778	5.684103E+12
73.400000	1381.000000	67.335000	2.392113E-10	5.773139E+12	1371.444444	5.614377E+12
73.600000	1364.000000	67.335000	2.423377E-10	5.628509E+12	1361.000000	5.562101E+12
73.800000	1321.000000	67.332000	2.421032E-10	5.456351E+12	1357.111111	5.543243E+12
74.000000	1396.000000	67.332000	2.422844E-10	5.761824E+12	1373.777778	5.611656E+12
74.200000	1384.000000	67.329000	2.421139E-10	5.716318E+12	1367.444444	5.585979E+12
74.400000	1383.000000	67.329000	2.424052E-10	5.705323E+12	1342.000000	5.483600E+12
74.600000	1280.000000	67.329000	2.420748E-10	5.287622E+12	1356.555556	5.543841E+12
74.800000	1369.000000	67.326000	2.422205E-10	5.651875E+12	1360.333333	5.557758E+12
75.000000	1271.000000	67.326000	2.423626E-10	5.244208E+12	1338.777778	5.469188E+12

Scan : 	10

50.000000	2053.000000	67.319000	2.421778E-10	8.477243E+12	2035.200000	8.302390E+12
50.200000	1915.000000	67.316000	2.420570E-10	7.911360E+12	2009.700000	8.197874E+12
50.400000	1926.000000	67.316000	2.421885E-10	7.952483E+12	2006.900000	8.187272E+12
50.600000	2059.000000	67.316000	2.421743E-10	8.502141E+12	2007.900000	8.195189E+12
50.800000	2004.000000	67.313000	2.419078E-10	8.284148E+12	1990.600000	8.121771E+12
51.000000	2007.000000	67.313000	2.418794E-10	8.297523E+12	1988.400000	8.116025E+12
51.200000	2004.000000	67.310000	2.421139E-10	8.277096E+12	1969.000000	8.033022E+12
51.400000	2005.000000	67.310000	2.420180E-10	8.284508E+12	1939.900000	7.913207E+12
51.600000	1947.000000	67.308000	2.420748E-10	8.042969E+12	1961.300000	8.004564E+12
51.800000	1949.000000	67.308000	2.421245E-10	8.049578E+12	1941.800000	7.929674E+12
52.000000	1999.000000	67.305000	2.418403E-10	8.265785E+12	1966.100000	8.022887E+12
52.200000	1982.000000	67.305000	2.418545E-10	8.195010E+12	1926.500000	7.864402E+12
52.400000	1982.000000	67.302000	2.421245E-10	8.185871E+12	1965.200000	8.022418E+12
52.600000	1952.000000	67.302000	2.419647E-10	8.067292E+12	1939.300000	7.912855E+12
52.800000	1941.000000	67.302000	2.420215E-10	8.019949E+12	1916.700000	7.828645E+12
53.000000	1947.000000	67.299000	2.420251E-10	8.044620E+12	1912.800000	7.808863E+12
53.200000	1876.000000	67.299000	2.418403E-10	7.757185E+12	1911.300000	7.799669E+12
53.400000	1923.000000	67.296000	2.420109E-10	7.945923E+12	1890.700000	7.710996E+12
53.600000	1877.000000	67.296000	2.419043E-10	7.759267E+12	1891.100000	7.717439E+12
53.800000	1828.000000	67.293000	2.416911E-10	7.563373E+12	1876.700000	7.662754E+12
54.000000	1942.000000	67.293000	2.418119E-10	8.031036E+12	1894.300000	7.731974E+12
54.200000	1933.000000	67.290000	2.420961E-10	7.984433E+12	1866.100000	7.615068E+12
54.400000	1872.000000	67.290000	2.418652E-10	7.739848E+12	1875.200000	7.651813E+12
54.600000	1884.000000	67.287000	2.418190E-10	7.790951E+12	1884.200000	7.688565E+12
54.800000	1828.000000	67.287000	2.419753E-10	7.554490E+12	1860.700000	7.595574E+12
55.000000	1892.000000	67.287000	2.419931E-10	7.818405E+12	1842.200000	7.525867E+12
55.200000	1830.000000	67.287000	2.420499E-10	7.560425E+12	1832.900000	7.488917E+12
55.400000	1902.000000	67.285000	2.421352E-10	7.855116E+12	1861.600000	7.596256E+12
55.600000	1846.000000	67.285000	2.419824E-10	7.628654E+12	1823.800000	7.445870E+12
55.800000	1842.000000	67.282000	2.420855E-10	7.608882E+12	1832.800000	7.485723E+12
56.000000	1807.000000	67.282000	2.421459E-10	7.462443E+12	1831.400000	7.477688E+12
56.200000	1744.000000	67.280000	2.420428E-10	7.205337E+12	1812.300000	7.397612E+12
56.400000	1816.000000	67.280000	2.420890E-10	7.501373E+12	1825.100000	7.449696E+12
56.600000	1769.000000	67.278000	2.421494E-10	7.305407E+12	1782.100000	7.273792E+12
56.800000	1840.000000	67.278000	2.420784E-10	7.600843E+12	1786.100000	7.291657E+12
57.000000	1806.000000	67.275000	2.422453E-10	7.455253E+12	1791.200000	7.309724E+12
57.200000	1824.000000	67.275000	2.421672E-10	7.531986E+12	1773.400000	7.241001E+12
57.400000	1872.000000	67.275000	2.417160E-10	7.744626E+12	1792.400000	7.318027E+12
57.600000	1856.000000	67.272000	2.419824E-10	7.669979E+12	1770.900000	7.232539E+12
57.800000	1737.000000	67.272000	2.419824E-10	7.178208E+12	1754.000000	7.163646E+12
58.000000	1737.000000	67.269000	2.416840E-10	7.187071E+12	1770.600000	7.230926E+12
58.200000	1798.000000	67.269000	2.418616E-10	7.434004E+12	1782.700000	7.277848E+12
58.400000	1812.000000	67.267000	2.417764E-10	7.494528E+12	1786.100000	7.295259E+12
58.600000	1813.000000	67.267000	2.423377E-10	7.481296E+12	1750.200000	7.144678E+12
58.800000	1800.000000	67.264000	2.420286E-10	7.437138E+12	1750.100000	7.146754E+12
59.000000	1842.000000	67.264000	2.418190E-10	7.617267E+12	1788.300000	7.302530E+12
59.200000	1810.000000	67.264000	2.418901E-10	7.482737E+12	1781.400000	7.276390E+12
59.400000	1808.000000	67.261000	2.416165E-10	7.482933E+12	1775.800000	7.257176E+12
59.600000	1781.000000	67.261000	2.417195E-10	7.368044E+12	1786.600000	7.299699E+12
59.800000	1841.000000	67.258000	2.416947E-10	7.617047E+12	1810.500000	7.394862E+12
60.000000	1846.000000	67.258000	2.416591E-10	7.638860E+12	1797.600000	7.346180E+12
60.200000	1793.000000	67.255000	2.417977E-10	7.415290E+12	1835.500000	7.501924E+12
60.400000	1782.000000	67.255000	2.419327E-10	7.365685E+12	1837.800000	7.507144E+12
60.600000	1895.000000	67.253000	2.419931E-10	7.830802E+12	1840.800000	7.520224E+12
60.800000	1804.000000	67.253000	2.420357E-10	7.453446E+12	1836.200000	7.501460E+12
61.000000	1913.000000	67.253000	2.414531E-10	7.922864E+12	1904.400000	7.781539E+12
61.200000	1849.000000	67.250000	2.413678E-10	7.660508E+12	1900.800000	7.767678E+12
61.400000	1868.000000	67.250000	2.417977E-10	7.725466E+12	1907.000000	7.789971E+12
61.600000	1977.000000	67.248000	2.417870E-10	8.176618E+12	1948.000000	7.956347E+12
61.800000	1905.000000	67.248000	2.419149E-10	7.874670E+12	1968.700000	8.039284E+12
62.000000	2026.000000	67.246000	2.419505E-10	8.373614E+12	1941.300000	7.933144E+12
62.200000	1945.000000	67.246000	2.419291E-10	8.039545E+12	1971.500000	8.051826E+12
62.400000	1886.000000	67.244000	2.418901E-10	7.796929E+12	1971.700000	8.053511E+12
62.600000	1945.000000	67.244000	2.418084E-10	8.043558E+12	1973.400000	8.058201E+12
62.800000	1938.000000	67.242000	2.416485E-10	8.019913E+12	1937.900000	7.918893E+12
63.000000	1930.000000	67.242000	2.415455E-10	7.990213E+12	1919.400000	7.842079E+12
63.200000	1939.000000	67.239000	2.414815E-10	8.029601E+12	1914.200000	7.820955E+12
63.400000	1860.000000	67.239000	2.415597E-10	7.699960E+12	1892.400000	7.730577E+12
63.600000	1838.000000	67.239000	2.415383E-10	7.609559E+12	1820.800000	7.441809E+12
63.800000	1869.000000	67.237000	2.412861E-10	7.745991E+12	1791.000000	7.317550E+12
64.000000	1803.000000	67.237000	2.414318E-10	7.467947E+12	1755.900000	7.175008E+12
64.200000	1718.000000	67.234000	2.420464E-10	7.097813E+12	1717.400000	7.020998E+12
64.400000	1699.000000	67.234000	2.417941E-10	7.026640E+12	1672.300000	6.834106E+12
64.600000	1644.000000	67.230000	2.415064E-10	6.807273E+12	1647.900000	6.738084E+12
64.800000	1642.000000	67.230000	2.418190E-10	6.790203E+12	1582.000000	6.465132E+12
65.000000	1609.000000	67.227000	2.416201E-10	6.659214E+12	1589.800000	6.498783E+12
65.200000	1570.000000	67.227000	2.416698E-10	6.496467E+12	1544.000000	6.308933E+12
65.400000	1504.000000	67.224000	2.415810E-10	6.225655E+12	1515.800000	6.195622E+12
65.600000	1527.000000	67.224000	2.414389E-10	6.324581E+12	1495.500000	6.114577E+12
65.800000	1538.000000	67.224000	2.414744E-10	6.369205E+12	1485.900000	6.071842E+12
66.000000	1530.000000	67.221000	2.413216E-10	6.340087E+12	1497.300000	6.120541E+12
66.200000	1517.000000	67.221000	2.413074E-10	6.286587E+12	1478.000000	6.041092E+12
66.400000	1464.000000	67.218000	2.413181E-10	6.066681E+12	1470.000000	6.009141E+12
66.600000	1505.000000	67.218000	2.416556E-10	6.227871E+12	1447.800000	5.915896E+12
66.800000	1417.000000	67.215000	2.417622E-10	5.861131E+12	1453.600000	5.941462E+12
67.000000	1459.000000	67.215000	2.411404E-10	6.050417E+12	1477.100000	6.037352E+12
67.200000	1507.000000	67.213000	2.414708E-10	6.240920E+12	1471.900000	6.017099E+12
67.400000	1451.000000	67.213000	2.413323E-10	6.012457E+12	1441.800000	5.893982E+12
67.600000	1422.000000	67.213000	2.416591E-10	5.884322E+12	1449.900000	5.928162E+12
67.800000	1390.000000	67.210000	2.417764E-10	5.749114E+12	1430.500000	5.846058E+12
68.000000	1444.000000	67.210000	2.417728E-10	5.972549E+12	1429.400000	5.842685E+12
68.200000	1552.000000	67.208000	2.418190E-10	6.418023E+12	1429.000000	5.841857E+12
68.400000	1426.000000	67.208000	2.417764E-10	5.898012E+12	1439.900000	5.887272E+12
68.600000	1437.000000	67.206000	2.418794E-10	5.940977E+12	1410.900000	5.766801E+12
68.800000	1448.000000	67.206000	2.414318E-10	5.997553E+12	1435.700000	5.870220E+12
69.000000	1393.000000	67.203000	2.415348E-10	5.767285E+12	1424.200000	5.823931E+12
69.200000	1421.000000	67.203000	2.413572E-10	5.887539E+12	1413.800000	5.780795E+12
69.400000	1387.000000	67.201000	2.413856E-10	5.745993E+12	1429.000000	5.843256E+12
69.600000	1426.000000	67.201000	2.418759E-10	5.895585E+12	1419.700000	5.804671E+12
69.800000	1396.000000	67.201000	2.419327E-10	5.770200E+12	1396.800000	5.709889E+12
70.000000	1437.000000	67.198000	2.414779E-10	5.950855E+12	1419.900000	5.807195E+12
70.200000	1400.000000	67.198000	2.415064E-10	5.796948E+12	1404.300000	5.739928E+12
70.400000	1424.000000	67.195000	2.413927E-10	5.899101E+12	1424.500000	5.826322E+12
70.600000	1423.000000	67.195000	2.415597E-10	5.890883E+12	1393.800000	5.697381E+12
70.800000	1443.000000	67.191000	2.414353E-10	5.976757E+12	1429.000000	5.845547E+12
71.000000	1374.000000	67.191000	2.412150E-10	5.696163E+12	1389.500000	5.680898E+12
71.200000	1427.000000	67.188000	2.413927E-10	5.911529E+12	1402.500000	5.736238E+12
71.400000	1371.000000	67.188000	2.419718E-10	5.665950E+12	1362.500000	5.572338E+12
71.600000	1389.000000	67.185000	2.417480E-10	5.745652E+12	1381.200000	5.649868E+12
71.800000	1355.000000	67.185000	2.420499E-10	5.598019E+12	1370.700000	5.605674E+12
72.000000	1405.000000	67.185000	2.416698E-10	5.813718E+12	1393.300000	5.699037E+12
72.200000	1308.000000	67.182000	2.411866E-10	5.423187E+12	1384.200000	5.663034E+12
72.400000	1387.000000	67.182000	2.411582E-10	5.751411E+12	1371.700000	5.613978E+12
72.600000	1381.000000	67.180000	2.414211E-10	5.720295E+12	1367.800000	5.595292E+12
72.800000	1384.000000	67.180000	2.414460E-10	5.732131E+12	1376.100000	5.631352E+12
73.000000	1398.000000	67.177000	2.414744E-10	5.789434E+12	1390.200000	5.686999E+12
73.200000	1328.000000	67.177000	2.417231E-10	5.493889E+12	1384.500000	5.665081E+12
73.400000	1367.000000	67.175000	2.416023E-10	5.658059E+12	1371.000000	5.618745E+12
73.600000	1362.000000	67.175000	2.416947E-10	5.635208E+12	1361.100000	5.569412E+12
73.800000	1380.000000	67.173000	2.415703E-10	5.712623E+12	1359.400000	5.560181E+12
74.000000	1356.000000	67.173000	2.419362E-10	5.604783E+12	1372.000000	5.610968E+12
74.200000	1398.000000	67.173000	2.417515E-10	5.782798E+12	1370.500000	5.605661E+12
74.400000	1401.000000	67.171000	2.414779E-10	5.801773E+12	1347.900000	5.515417E+12
74.600000	1369.000000	67.171000	2.412719E-10	5.674096E+12	1357.800000	5.556867E+12
74.800000	1400.000000	67.168000	2.412861E-10	5.802241E+12	1364.300000	5.582206E+12
75.000000	1360.000000	67.168000	2.413358E-10	5.635302E+12	1340.900000	5.485799E+12
